#time,accel_x,accel_y,accel_z
1010.508170,296.082377,-9918.759623,76.609550
1010.508494,518.144159,-9844.739029,612.876398
1010.508819,148.041188,-9992.780217,0.000000
1010.509143,0.000000,-9474.636058,0.000000
1010.509467,-148.041188,-9030.512492,0.000000
1010.509791,0.000000,-9548.656652,-536.266849
1010.510115,0.000000,-9474.636058,0.000000
1010.510439,74.020594,-9770.718434,0.000000
1010.510763,148.041188,-9696.697840,0.000000
1010.511087,444.123565,-9622.677246,306.438199
1010.511411,148.041188,-9548.656652,-306.438199
1010.511735,148.041188,-9622.677246,-153.219100
1010.512059,296.082377,-9992.780217,0.000000
1010.512383,0.000000,-9474.636058,0.000000
1010.512707,0.000000,-9696.697840,0.000000
1010.513031,0.000000,-9770.718434,0.000000
1010.513355,-518.144159,-9474.636058,229.828649
1010.513679,-296.082377,-9696.697840,0.000000
1010.514004,-222.061783,-9252.574275,153.219100
1010.514328,0.000000,-9474.636058,-153.219100
1010.514652,0.000000,-9252.574275,0.000000
1010.514976,296.082377,-9770.718434,76.609550
1010.515300,148.041188,-9622.677246,229.828649
1010.515624,0.000000,-9696.697840,153.219100
1010.515948,-296.082377,-9770.718434,0.000000
1010.516272,-666.185348,-9696.697840,0.000000
1010.516596,-666.185348,-9622.677246,229.828649
1010.516920,-740.205942,-9252.574275,0.000000
1010.517244,-592.164754,-9844.739029,153.219100
1010.517568,-148.041188,-9770.718434,383.047749
1010.517892,0.000000,-9992.780217,229.828649
1010.518216,74.020594,-9474.636058,0.000000
1010.518540,444.123565,-9622.677246,383.047749
1010.518865,148.041188,-10214.842000,-153.219100
1010.519189,0.000000,-9696.697840,-612.876398
1010.519513,-444.123565,-9770.718434,1072.533697
1010.519837,0.000000,-9770.718434,612.876398
1010.520161,0.000000,-9992.780217,-153.219100
1010.520485,-1184.329507,-9400.615463,0.000000
1010.520809,-1702.473667,-9696.697840,76.609550
1010.521133,-1480.411884,-9770.718434,-306.438199
1010.521457,-814.226536,-8438.347739,306.438199
1010.521781,-592.164754,-8068.244768,612.876398
1010.522105,0.000000,-8882.471304,612.876398
1010.522429,370.102971,-9474.636058,689.485948
1010.522753,296.082377,-10214.842000,1149.143247
1010.523077,-740.205942,-10436.903782,689.485948
1010.523401,-2146.597232,-10658.965565,229.828649
1010.523726,-2812.782580,-10510.924376,383.047749
1010.524050,-2886.803174,-10436.903782,766.095498
1010.524374,-2072.576638,-10732.986159,306.438199
1010.524698,-2146.597232,-9622.677246,612.876398
1010.525022,-1332.370696,-9326.594869,536.266849
1010.525346,-592.164754,-8882.471304,1149.143247
1010.525670,444.123565,-8808.450710,1685.410096
1010.525994,74.020594,-9178.553681,1685.410096
1010.526318,-814.226536,-9770.718434,1225.752797
1010.526642,-1850.514855,-9770.718434,1378.971896
1010.526966,-2812.782580,-10436.903782,919.314598
1010.527290,-2812.782580,-10214.842000,1302.362347
1010.527614,-2812.782580,-10362.883188,1685.410096
1010.527938,-2590.720797,-10807.006753,1532.190996
1010.528262,-2220.617826,-10288.862594,1685.410096
1010.528587,-1776.494261,-9326.594869,1532.190996
1010.528911,-592.164754,-8586.388927,2145.067394
1010.529235,-444.123565,-8586.388927,1991.848295
1010.529559,74.020594,-9252.574275,2604.724693
1010.529883,-518.144159,-9326.594869,2528.115143
1010.530207,-1036.288319,-9548.656652,2298.286494
1010.530531,-2368.659014,-9992.780217,2221.676944
1010.530855,-3256.906145,-10584.944971,2298.286494
1010.531179,-4219.173869,-10658.965565,1838.629195
1010.531503,-4811.338623,-10436.903782,2757.943793
1010.531827,-5255.462188,-10288.862594,2681.334243
1010.532151,-4811.338623,-10288.862594,3600.648841
1010.532475,-4885.359217,-9474.636058,2451.505594
1010.532799,-4885.359217,-9178.553681,3064.381992
1010.533123,-4293.194464,-9622.677246,3294.210641
1010.533447,-2664.741391,-9844.739029,3907.087040
1010.533772,-666.185348,-9326.594869,4903.011187
1010.534096,518.144159,-8956.491898,4443.353888
1010.534420,592.164754,-7994.224174,4596.572988
1010.534744,666.185348,-7846.182985,3677.258390
1010.535068,296.082377,-8364.327145,3600.648841
1010.535392,-592.164754,-9104.533087,3064.381992
1010.535716,-2368.659014,-8586.388927,2221.676944
1010.536040,-4589.276840,-7179.997637,842.705048
1010.536364,-6661.853478,-8068.244768,0.000000
1010.536688,-8142.265362,-10955.047942,919.314598
1010.537012,-7254.018232,-11769.274478,689.485948
1010.537336,-5033.400406,-10807.006753,1838.629195
1010.537660,-3034.844362,-8882.471304,4290.134789
1010.537984,222.061783,-8068.244768,4443.353888
1010.538308,3034.844362,-9030.512492,4060.306139
1010.538633,4145.153275,-10066.800811,4443.353888
1010.538957,4145.153275,-9992.780217,5132.839837
1010.539281,3404.947333,-10288.862594,4903.011187
1010.539605,1776.494261,-10362.883188,3907.087040
1010.539929,-1554.432478,-7994.224174,1915.238745
1010.540253,-4589.276840,-6957.935855,-1608.800546
1010.540577,-7105.977043,-9992.780217,-2374.896044
1010.540901,-7105.977043,-12361.439231,-2068.457845
1010.541225,-4219.173869,-11177.109724,-1685.410096
1010.541549,-2368.659014,-9326.594869,459.657299
1010.541873,-2220.617826,-8290.306550,1225.752797
1010.542197,-2368.659014,-8882.471304,919.314598
1010.542521,-3034.844362,-10214.842000,1302.362347
1010.542845,-2886.803174,-10436.903782,1149.143247
1010.543169,-962.267725,-11029.068536,3064.381992
1010.543494,2812.782580,-12361.439231,4290.134789
1010.543818,6069.688724,-11547.212695,4596.572988
1010.544142,6513.812290,-10658.965565,4366.744339
1010.544466,3034.844362,-10214.842000,2451.505594
1010.544790,-2072.576638,-9474.636058,-842.705048
1010.545114,-6217.729913,-9178.553681,-3830.477490
1010.545438,-7698.141797,-9622.677246,-2451.505594
1010.545762,-5477.523971,-10584.944971,-1915.238745
1010.546086,-2738.761985,-10732.986159,-1991.848295
1010.546410,-4367.215058,-9992.780217,0.000000
1010.546734,-5107.421000,-8882.471304,-306.438199
1010.547058,-5403.503377,-8364.327145,-1072.533697
1010.547382,-6143.709319,-8364.327145,0.000000
1010.547706,-4293.194464,-8364.327145,1149.143247
1010.548030,-592.164754,-10436.903782,3140.991542
1010.548354,2368.659014,-13027.624579,4519.963438
1010.548679,2516.700203,-12657.521608,4290.134789
1010.549003,962.267725,-11103.089130,4136.915689
1010.549327,-518.144159,-9474.636058,2145.067394
1010.549651,-2294.638420,-9252.574275,1149.143247
1010.549975,-2294.638420,-8956.491898,995.924147
1010.550299,-888.247130,-8660.409521,1149.143247
1010.550623,-1628.453072,-8586.388927,766.095498
1010.550947,-4367.215058,-8956.491898,842.705048
1010.551271,-5625.565159,-8438.347739,919.314598
1010.551595,-4885.359217,-8216.285956,536.266849
1010.551919,-3923.091493,-7772.162391,1455.581446
1010.552243,-4071.132681,-8216.285956,1608.800546
1010.552567,-5033.400406,-9844.739029,1608.800546
1010.552891,-5329.482782,-10881.027347,2068.457845
1010.553215,-4589.276840,-10510.924376,2374.896044
1010.553540,-2516.700203,-9400.615463,2911.162892
1010.553864,-740.205942,-8438.347739,2604.724693
1010.554188,-666.185348,-9696.697840,2451.505594
1010.554512,-1258.350101,-10955.047942,3140.991542
1010.554836,-370.102971,-11251.130318,3217.601092
1010.555160,814.226536,-10214.842000,2834.553343
1010.555484,0.000000,-9474.636058,2681.334243
1010.555808,-2146.597232,-9474.636058,2911.162892
1010.556132,-3182.885551,-11399.171507,2757.943793
1010.556456,-3404.947333,-10584.944971,3140.991542
1010.556780,-2812.782580,-9696.697840,2987.772442
1010.557104,-3034.844362,-7179.997637,2528.115143
1010.557428,-3256.906145,-7105.977043,2681.334243
1010.557752,-3627.009116,-8364.327145,2681.334243
1010.558076,-2516.700203,-9178.553681,2757.943793
1010.558401,-2960.823768,-8956.491898,1838.629195
1010.558725,-4293.194464,-8956.491898,1762.019645
1010.559049,-3775.050304,-9474.636058,1532.190996
1010.559373,-814.226536,-10436.903782,4060.306139
1010.559697,1554.432478,-11547.212695,3217.601092
1010.560021,814.226536,-11991.336260,3830.477490
1010.560345,0.000000,-11843.295072,3907.087040
1010.560669,518.144159,-11547.212695,3753.867940
1010.560993,222.061783,-10807.006753,3294.210641
1010.561317,-1110.308913,-9992.780217,3600.648841
1010.561641,-2664.741391,-10955.047942,3600.648841
1010.561965,-2738.761985,-10807.006753,2451.505594
1010.562289,-2146.597232,-9178.553681,2145.067394
1010.562613,-1776.494261,-7550.100608,2911.162892
1010.562937,-2516.700203,-8512.368333,2528.115143
1010.563262,-3108.864956,-9326.594869,1225.752797
1010.563586,-3330.926739,-7550.100608,1608.800546
1010.563910,-2664.741391,-6809.894666,2221.676944
1010.564234,-1702.473667,-9104.533087,1991.848295
1010.564558,-1628.453072,-9622.677246,1685.410096
1010.564882,-962.267725,-7920.203579,2757.943793
1010.565206,-444.123565,-8216.285956,3600.648841
1010.565530,0.000000,-10214.842000,2145.067394
1010.565854,-592.164754,-10658.965565,2451.505594
1010.566178,-1480.411884,-9474.636058,3140.991542
1010.566502,-1480.411884,-10362.883188,2911.162892
1010.566826,-1628.453072,-11029.068536,2374.896044
1010.567150,-2368.659014,-9104.533087,2374.896044
1010.567474,-3256.906145,-7994.224174,2451.505594
1010.567798,-3997.112087,-10436.903782,1455.581446
1010.568122,-4515.256246,-10807.006753,76.609550
1010.568447,-4515.256246,-8956.491898,1608.800546
1010.568771,-4959.379811,-8438.347739,1685.410096
1010.569095,-4367.215058,-9400.615463,153.219100
1010.569418,-3849.070898,-8290.306550,612.876398
1010.569742,-2664.741391,-8438.347739,1225.752797
1010.570066,-1924.535449,-9844.739029,689.485948
1010.570390,-1628.453072,-10436.903782,919.314598
1010.570714,-1406.391290,-9770.718434,1072.533697
1010.571038,-888.247130,-9844.739029,1378.971896
1010.571362,-1036.288319,-9622.677246,2068.457845
1010.571686,-814.226536,-9918.759623,1608.800546
1010.572010,-740.205942,-11029.068536,76.609550
1010.572333,-2590.720797,-11029.068536,0.000000
1010.572657,-3552.988522,-11029.068536,383.047749
1010.572981,-2294.638420,-11843.295072,-229.828649
1010.573305,-1332.370696,-11177.109724,842.705048
1010.573629,-962.267725,-10510.924376,1608.800546
1010.573953,-1554.432478,-10140.821405,0.000000
1010.574277,-2812.782580,-10214.842000,766.095498
1010.574601,-3849.070898,-10362.883188,689.485948
1010.574925,-3478.967927,-10214.842000,383.047749
1010.575249,-2368.659014,-8956.491898,1072.533697
1010.575572,-1554.432478,-9178.553681,2528.115143
1010.575896,-222.061783,-9770.718434,1685.410096
1010.576220,-1036.288319,-9104.533087,1915.238745
1010.576544,-2664.741391,-9622.677246,2757.943793
1010.576868,-3108.864956,-10362.883188,1685.410096
1010.577192,-1406.391290,-9252.574275,1762.019645
1010.577516,0.000000,-7920.203579,1915.238745
1010.577840,-888.247130,-8882.471304,2221.676944
1010.578164,-1480.411884,-9474.636058,1302.362347
1010.578487,-2294.638420,-9326.594869,1455.581446
1010.578811,-3552.988522,-9844.739029,1762.019645
1010.579135,-3627.009116,-10066.800811,1378.971896
1010.579459,-2294.638420,-9548.656652,1072.533697
1010.579783,-2146.597232,-10140.821405,2298.286494
1010.580107,-2072.576638,-10732.986159,2528.115143
1010.580431,-1628.453072,-10510.924376,3447.429741
1010.580755,-814.226536,-10362.883188,3907.087040
1010.581079,-296.082377,-9770.718434,2604.724693
1010.581403,-444.123565,-7772.162391,2911.162892
1010.581726,-740.205942,-8438.347739,3217.601092
1010.582050,-1332.370696,-10362.883188,2068.457845
1010.582374,-3330.926739,-10362.883188,2068.457845
1010.582698,-3627.009116,-8660.409521,1455.581446
1010.583022,-2664.741391,-7920.203579,229.828649
1010.583346,-2960.823768,-8512.368333,842.705048
1010.583670,-2220.617826,-9326.594869,1608.800546
1010.583994,-740.205942,-9400.615463,1455.581446
1010.584318,-222.061783,-9030.512492,2451.505594
1010.584641,74.020594,-8808.450710,3600.648841
1010.584965,444.123565,-9326.594869,3677.258390
1010.585289,148.041188,-10362.883188,3983.696590
1010.585613,-740.205942,-10362.883188,3830.477490
1010.585937,-592.164754,-9030.512492,2834.553343
1010.586261,-666.185348,-8734.430116,3294.210641
1010.586585,444.123565,-9548.656652,2834.553343
1010.586909,148.041188,-7994.224174,1378.971896
1010.587233,-1110.308913,-7698.141797,612.876398
1010.587557,-1332.370696,-8364.327145,-612.876398
1010.587880,-1258.350101,-8882.471304,-1302.362347
1010.588204,-962.267725,-9030.512492,-1302.362347
1010.588528,-666.185348,-8364.327145,-1072.533697
1010.588852,-1110.308913,-9252.574275,-153.219100
1010.589176,-1480.411884,-11695.253884,0.000000
1010.589500,-2146.597232,-12139.377449,153.219100
1010.589824,-2072.576638,-11103.089130,766.095498
1010.590148,-1554.432478,-11103.089130,1608.800546
1010.590472,74.020594,-11177.109724,1762.019645
1010.590795,1924.535449,-10510.924376,1455.581446
1010.591119,2220.617826,-9548.656652,2145.067394
1010.591443,2368.659014,-8882.471304,1149.143247
1010.591767,2590.720797,-9030.512492,229.828649
1010.592091,2442.679609,-8364.327145,-1762.019645
1010.592415,592.164754,-8142.265362,-2681.334243
1010.592739,-2442.679609,-10881.027347,-2681.334243
1010.593063,-3775.050304,-12583.501014,-4443.353888
1010.593387,-4885.359217,-11769.274478,-3830.477490
1010.593711,-5181.441594,-10881.027347,-2987.772442
1010.594034,-3108.864956,-10066.800811,-2528.115143
1010.594358,-1332.370696,-11547.212695,-842.705048
1010.594682,222.061783,-11103.089130,0.000000
1010.595006,1924.535449,-9474.636058,689.485948
1010.595330,2812.782580,-9104.533087,689.485948
1010.595654,2590.720797,-9252.574275,1072.533697
1010.595978,2664.741391,-9770.718434,2451.505594
1010.596302,4811.338623,-11325.150913,2911.162892
1010.596626,4959.379811,-10584.944971,2604.724693
1010.596950,2738.761985,-8068.244768,-995.924147
1010.597273,-1036.288319,-7994.224174,-2298.286494
1010.597597,-4219.173869,-10881.027347,-3294.210641
1010.597921,-3701.029710,-11695.253884,-5132.839837
1010.598245,-3701.029710,-9770.718434,-3677.258390
1010.598569,-4515.256246,-9474.636058,-995.924147
1010.598893,-3627.009116,-10214.842000,-1991.848295
1010.599217,-1332.370696,-9474.636058,-2451.505594
1010.599541,1036.288319,-8216.285956,-306.438199
1010.599865,4367.215058,-8882.471304,1532.190996
1010.600188,5847.626942,-9030.512492,2298.286494
1010.600512,5329.482782,-8438.347739,2987.772442
1010.600836,5329.482782,-6439.791695,3677.258390
1010.601160,5107.421000,-7105.977043,2681.334243
1010.601484,2072.576638,-9030.512492,919.314598
1010.601808,-1850.514855,-10732.986159,-459.657299
1010.602132,-2220.617826,-10066.800811,-1838.629195
1010.602456,-592.164754,-9030.512492,-1838.629195
1010.602780,0.000000,-8808.450710,-2145.067394
1010.603104,-1776.494261,-8956.491898,-2604.724693
1010.603427,-2072.576638,-10066.800811,-2298.286494
1010.603751,-1924.535449,-10436.903782,-2757.943793
1010.604075,-1406.391290,-9770.718434,-1072.533697
1010.604399,-518.144159,-9844.739029,459.657299
1010.604723,1110.308913,-10140.821405,306.438199
1010.605047,2294.638420,-10584.944971,1685.410096
1010.605371,2368.659014,-10584.944971,1762.019645
1010.605695,1628.453072,-10955.047942,1685.410096
1010.606019,74.020594,-11103.089130,1072.533697
1010.606342,-740.205942,-10140.821405,1149.143247
1010.606666,-518.144159,-9770.718434,229.828649
1010.606990,-148.041188,-9696.697840,-995.924147
1010.607314,-1036.288319,-9326.594869,-1225.752797
1010.607638,-2664.741391,-9400.615463,-1991.848295
1010.607962,-2516.700203,-9104.533087,-2145.067394
1010.608286,-962.267725,-8882.471304,-1302.362347
1010.608610,-518.144159,-9326.594869,0.000000
1010.608934,-444.123565,-8808.450710,459.657299
1010.609258,-518.144159,-8142.265362,459.657299
1010.609581,-592.164754,-8882.471304,1225.752797
1010.609905,370.102971,-10807.006753,1762.019645
1010.610229,1036.288319,-11547.212695,2068.457845
1010.610553,444.123565,-10510.924376,2374.896044
1010.610877,0.000000,-9548.656652,995.924147
1010.611201,-1110.308913,-11103.089130,995.924147
1010.611525,-2220.617826,-12139.377449,689.485948
1010.611849,-1924.535449,-11325.150913,-1225.752797
1010.612173,-2516.700203,-9474.636058,-1225.752797
1010.612496,-1998.556043,-9104.533087,-1072.533697
1010.612820,518.144159,-9474.636058,-536.266849
1010.613144,1998.556043,-10140.821405,919.314598
1010.613468,592.164754,-9548.656652,76.609550
1010.613792,-1702.473667,-8734.430116,383.047749
1010.614116,-2146.597232,-9030.512492,459.657299
1010.614440,-1184.329507,-9326.594869,766.095498
1010.614764,148.041188,-9252.574275,2451.505594
1010.615088,1702.473667,-8438.347739,2145.067394
1010.615412,1924.535449,-8660.409521,1915.238745
1010.615735,1406.391290,-9030.512492,1608.800546
1010.616059,2960.823768,-8956.491898,919.314598
1010.616383,1998.556043,-8068.244768,689.485948
1010.616707,222.061783,-8290.306550,-306.438199
1010.617031,-1110.308913,-9178.553681,0.000000
1010.617355,-592.164754,-9474.636058,-766.095498
1010.617679,962.267725,-9252.574275,-1072.533697
1010.618003,1406.391290,-9400.615463,-612.876398
1010.618327,1776.494261,-9844.739029,459.657299
1010.618650,1628.453072,-9918.759623,-383.047749
1010.618974,592.164754,-9326.594869,-919.314598
1010.619298,-962.267725,-8734.430116,0.000000
1010.619622,-1110.308913,-10362.883188,-766.095498
1010.619946,-1480.411884,-10732.986159,-919.314598
1010.620270,-1850.514855,-9474.636058,306.438199
1010.620594,-592.164754,-9400.615463,-153.219100
1010.620918,74.020594,-10362.883188,-1302.362347
1010.621242,0.000000,-9918.759623,-842.705048
1010.621566,0.000000,-10140.821405,0.000000
1010.621889,1258.350101,-9918.759623,-1149.143247
1010.622213,1110.308913,-10140.821405,-612.876398
1010.622537,0.000000,-10955.047942,-383.047749
1010.622861,814.226536,-10584.944971,-612.876398
1010.623185,1110.308913,-10288.862594,0.000000
1010.623509,1332.370696,-9844.739029,-842.705048
1010.623833,1184.329507,-9252.574275,-459.657299
1010.624157,592.164754,-9844.739029,-612.876398
1010.624481,-296.082377,-10436.903782,-1225.752797
1010.624804,-1332.370696,-10436.903782,-689.485948
1010.625128,-1332.370696,-10658.965565,-459.657299
1010.625452,-1036.288319,-10807.006753,-1302.362347
1010.625776,-1036.288319,-10658.965565,-1149.143247
1010.626100,-1332.370696,-9030.512492,-306.438199
1010.626424,-518.144159,-9548.656652,-536.266849
1010.626748,-592.164754,-10807.006753,-766.095498
1010.627072,-592.164754,-10658.965565,-612.876398
1010.627396,74.020594,-10140.821405,459.657299
1010.627720,1702.473667,-10140.821405,0.000000
1010.628043,2442.679609,-9548.656652,612.876398
1010.628367,1628.453072,-9770.718434,459.657299
1010.628691,0.000000,-9992.780217,0.000000
1010.629015,-1850.514855,-9844.739029,-536.266849
1010.629339,-1850.514855,-8882.471304,-229.828649
1010.629663,-444.123565,-9178.553681,0.000000
1010.629987,-814.226536,-9622.677246,-229.828649
1010.630311,-1924.535449,-8290.306550,-153.219100
1010.630635,-1628.453072,-7328.038826,-229.828649
1010.630959,0.000000,-8290.306550,229.828649
1010.631282,592.164754,-9178.553681,689.485948
1010.631606,296.082377,-9474.636058,1149.143247
1010.631930,-518.144159,-9474.636058,1838.629195
1010.632254,592.164754,-8512.368333,842.705048
1010.632578,1628.453072,-7846.182985,1149.143247
1010.632902,1110.308913,-8660.409521,1302.362347
1010.633226,740.205942,-8734.430116,842.705048
1010.633550,370.102971,-8660.409521,995.924147
1010.633874,444.123565,-8586.388927,229.828649
1010.634197,666.185348,-9622.677246,919.314598
1010.634521,222.061783,-10140.821405,-153.219100
1010.634845,-444.123565,-9548.656652,0.000000
1010.635169,-1036.288319,-9030.512492,153.219100
1010.635493,-444.123565,-9696.697840,0.000000
1010.635817,-296.082377,-10288.862594,306.438199
1010.636141,-370.102971,-11103.089130,-689.485948
1010.636465,-1036.288319,-9918.759623,306.438199
1010.636789,-370.102971,-10658.965565,536.266849
1010.637113,1332.370696,-11843.295072,1225.752797
1010.637436,1998.556043,-11103.089130,1378.971896
1010.637760,740.205942,-9770.718434,766.095498
1010.638084,-222.061783,-9770.718434,612.876398
1010.638408,-222.061783,-10214.842000,0.000000
1010.638732,296.082377,-9918.759623,76.609550
1010.639056,74.020594,-9252.574275,0.000000
1010.639380,-962.267725,-9252.574275,-383.047749
1010.639704,-962.267725,-9548.656652,-306.438199
1010.640028,-962.267725,-9474.636058,-919.314598
1010.640351,-518.144159,-9326.594869,-842.705048
1010.640675,-296.082377,-9252.574275,-536.266849
1010.640999,-888.247130,-9622.677246,-153.219100
1010.641323,-518.144159,-9622.677246,612.876398
1010.641647,0.000000,-9622.677246,1149.143247
1010.641971,-592.164754,-10658.965565,306.438199
1010.642295,-814.226536,-10362.883188,0.000000
1010.642619,-740.205942,-10066.800811,-383.047749
1010.642943,-592.164754,-9622.677246,-306.438199
1010.643267,-370.102971,-9400.615463,76.609550
1010.643590,-1036.288319,-10140.821405,-842.705048
1010.643914,-1036.288319,-10066.800811,-536.266849
1010.644238,-222.061783,-10362.883188,-919.314598
1010.644562,0.000000,-9696.697840,-536.266849
1010.644886,148.041188,-9104.533087,-1149.143247
1010.645210,370.102971,-8956.491898,-612.876398
1010.645534,1036.288319,-10140.821405,536.266849
1010.645858,1480.411884,-10362.883188,306.438199
1010.646182,1258.350101,-9844.739029,1072.533697
1010.646505,222.061783,-8882.471304,766.095498
1010.646829,-518.144159,-8808.450710,459.657299
1010.647153,-222.061783,-9474.636058,1532.190996
1010.647477,740.205942,-9178.553681,0.000000
1010.647801,740.205942,-8438.347739,153.219100
1010.648125,0.000000,-7624.121203,76.609550
1010.648449,370.102971,-7994.224174,1072.533697
1010.648773,1036.288319,-8734.430116,-153.219100
1010.649097,888.247130,-8512.368333,0.000000
1010.649421,370.102971,-8216.285956,-76.609550
1010.649744,-666.185348,-8956.491898,-1149.143247
1010.650068,-740.205942,-10510.924376,0.000000
1010.650392,-222.061783,-10955.047942,153.219100
1010.650716,1850.514855,-9548.656652,-766.095498
1010.651040,1924.535449,-9918.759623,-612.876398
1010.651364,1036.288319,-10732.986159,-306.438199
1010.651688,0.000000,-11547.212695,-306.438199
1010.652012,-740.205942,-10955.047942,-459.657299
1010.652336,-2072.576638,-10066.800811,-229.828649
1010.652659,-1702.473667,-9548.656652,-306.438199
1010.652983,-1036.288319,-10288.862594,-766.095498
1010.653307,-370.102971,-10881.027347,-459.657299
1010.653631,444.123565,-9104.533087,-383.047749
1010.653955,1110.308913,-9696.697840,-612.876398
1010.654279,518.144159,-10807.006753,-153.219100
1010.654603,-222.061783,-10140.821405,-383.047749
1010.654927,-814.226536,-8734.430116,-1378.971896
1010.655251,-1332.370696,-8438.347739,-1225.752797
1010.655575,-1406.391290,-9770.718434,-1532.190996
1010.655898,-962.267725,-10807.006753,-995.924147
1010.656222,0.000000,-10436.903782,-612.876398
1010.656546,740.205942,-9178.553681,0.000000
1010.656870,148.041188,-9770.718434,459.657299
1010.657194,-1406.391290,-11177.109724,-1225.752797
1010.657518,-3108.864956,-10807.006753,-919.314598
1010.657842,-2368.659014,-9992.780217,-1302.362347
1010.658166,0.000000,-10510.924376,0.000000
1010.658490,2146.597232,-10584.944971,-459.657299
1010.658813,2146.597232,-10066.800811,0.000000
1010.659137,592.164754,-9474.636058,383.047749
1010.659461,296.082377,-10436.903782,-536.266849
1010.659785,740.205942,-10807.006753,0.000000
1010.660109,222.061783,-10066.800811,-306.438199
1010.660433,-444.123565,-7920.203579,-1149.143247
1010.660757,-740.205942,-7772.162391,-383.047749
1010.661081,0.000000,-9400.615463,229.828649
1010.661405,1036.288319,-8956.491898,-229.828649
1010.661729,148.041188,-7920.203579,229.828649
1010.662052,-518.144159,-7920.203579,1608.800546
1010.662376,0.000000,-8882.471304,919.314598
1010.662700,592.164754,-9252.574275,2145.067394
1010.663024,1554.432478,-9474.636058,2834.553343
1010.663348,2146.597232,-8808.450710,1378.971896
1010.663672,1480.411884,-9400.615463,995.924147
1010.663996,1110.308913,-9252.574275,1149.143247
1010.664320,1628.453072,-9548.656652,1838.629195
1010.664644,1406.391290,-11103.089130,1302.362347
1010.664967,814.226536,-10436.903782,1072.533697
1010.665291,0.000000,-9326.594869,995.924147
1010.665615,-814.226536,-8808.450710,766.095498
1010.665939,-592.164754,-9696.697840,383.047749
1010.666263,-1850.514855,-10066.800811,0.000000
1010.666587,-2664.741391,-9474.636058,689.485948
1010.666911,-2886.803174,-8882.471304,153.219100
1010.667235,-2368.659014,-8512.368333,-766.095498
1010.667559,-2960.823768,-8586.388927,689.485948
1010.667883,-2072.576638,-9474.636058,689.485948
1010.668206,0.000000,-10584.944971,766.095498
1010.668530,888.247130,-10140.821405,1149.143247
1010.668854,1406.391290,-8882.471304,1302.362347
1010.669178,1406.391290,-8882.471304,766.095498
1010.669502,1184.329507,-9770.718434,153.219100
1010.669826,1110.308913,-11251.130318,766.095498
1010.670150,1258.350101,-10807.006753,689.485948
1010.670474,740.205942,-9696.697840,0.000000
1010.670798,-1110.308913,-9400.615463,-306.438199
1010.671122,-1554.432478,-9474.636058,-1302.362347
1010.671446,-740.205942,-9918.759623,-1455.581446
1010.671770,0.000000,-10362.883188,-536.266849
1010.672093,0.000000,-10214.842000,0.000000
1010.672417,370.102971,-9104.533087,0.000000
1010.672741,370.102971,-8290.306550,-612.876398
1010.673065,-444.123565,-9400.615463,-1225.752797
1010.673389,-1554.432478,-10584.944971,-1455.581446
1010.673713,-2072.576638,-10807.006753,-2374.896044
1010.674037,-1554.432478,-9844.739029,-1302.362347
1010.674361,0.000000,-9400.615463,-766.095498
1010.674685,1480.411884,-9918.759623,-689.485948
1010.675009,1998.556043,-10436.903782,-842.705048
1010.675333,2220.617826,-10288.862594,-842.705048
1010.675657,2664.741391,-10732.986159,0.000000
1010.675980,1406.391290,-11177.109724,-689.485948
1010.676304,592.164754,-10362.883188,-229.828649
1010.676628,0.000000,-10140.821405,-229.828649
1010.676952,148.041188,-9992.780217,-1838.629195
1010.677276,-1258.350101,-9696.697840,-1378.971896
1010.677600,-2220.617826,-9400.615463,-1991.848295
1010.677924,-1628.453072,-9252.574275,-1838.629195
1010.678248,-962.267725,-8808.450710,-1762.019645
1010.678572,-148.041188,-8660.409521,-536.266849
1010.678896,-444.123565,-9178.553681,-1302.362347
1010.679220,-888.247130,-9104.533087,-1225.752797
1010.679544,-1184.329507,-8512.368333,-1225.752797
1010.679868,-666.185348,-9400.615463,-995.924147
1010.680191,0.000000,-9770.718434,-383.047749
1010.680515,1702.473667,-9622.677246,306.438199
1010.680839,2294.638420,-9252.574275,689.485948
1010.681163,2442.679609,-9844.739029,229.828649
1010.681487,2146.597232,-10066.800811,306.438199
1010.681811,444.123565,-9770.718434,0.000000
1010.682135,-296.082377,-8438.347739,-306.438199
1010.682459,-666.185348,-8438.347739,-612.876398
1010.682783,-1924.535449,-9030.512492,-1685.410096
1010.683107,-2590.720797,-9400.615463,-919.314598
1010.683431,-1332.370696,-9918.759623,-153.219100
1010.683755,0.000000,-10066.800811,689.485948
1010.684079,-148.041188,-9400.615463,612.876398
1010.684402,-222.061783,-8364.327145,-76.609550
1010.684726,74.020594,-9622.677246,766.095498
1010.685050,740.205942,-10732.986159,766.095498
1010.685374,1110.308913,-11325.150913,842.705048
1010.685698,1036.288319,-9992.780217,1991.848295
1010.686022,2294.638420,-9474.636058,2068.457845
1010.686346,2886.803174,-10510.924376,1915.238745
1010.686670,2664.741391,-10584.944971,842.705048
1010.686994,1036.288319,-10140.821405,612.876398
1010.687318,-518.144159,-10140.821405,383.047749
1010.687642,-148.041188,-10584.944971,-612.876398
1010.687966,0.000000,-10214.842000,-229.828649
1010.688289,-518.144159,-9696.697840,0.000000
1010.688613,-666.185348,-10214.842000,0.000000
1010.688937,-1554.432478,-10881.027347,-306.438199
1010.689261,-2738.761985,-9770.718434,-153.219100
1010.689585,-2590.720797,-8808.450710,-306.438199
1010.689909,-1554.432478,-9400.615463,0.000000
1010.690233,-296.082377,-10066.800811,0.000000
1010.690557,296.082377,-10140.821405,1225.752797
1010.690881,296.082377,-9400.615463,1378.971896
1010.691205,-518.144159,-8586.388927,229.828649
1010.691529,-888.247130,-9548.656652,306.438199
1010.691853,-1332.370696,-9474.636058,-459.657299
1010.692177,-1628.453072,-9252.574275,229.828649
1010.692500,-740.205942,-9770.718434,0.000000
1010.692824,222.061783,-9400.615463,0.000000
1010.693148,740.205942,-8734.430116,76.609550
1010.693472,962.267725,-9030.512492,689.485948
1010.693796,1184.329507,-9770.718434,1762.019645
1010.694120,74.020594,-9474.636058,536.266849
1010.694444,-1036.288319,-7846.182985,306.438199
1010.694768,-1332.370696,-7920.203579,-766.095498
1010.695092,-962.267725,-8808.450710,-229.828649
1010.695416,222.061783,-8882.471304,689.485948
1010.695740,888.247130,-8142.265362,1149.143247
1010.696064,740.205942,-8364.327145,919.314598
1010.696388,222.061783,-8882.471304,-459.657299
1010.696711,666.185348,-8956.491898,-612.876398
1010.697035,1110.308913,-9844.739029,536.266849
1010.697359,2294.638420,-10288.862594,229.828649
1010.697683,1776.494261,-10140.821405,459.657299
1010.698007,814.226536,-9992.780217,612.876398
1010.698331,814.226536,-10066.800811,842.705048
1010.698655,1332.370696,-11325.150913,383.047749
1010.698979,1406.391290,-10732.986159,76.609550
1010.699303,0.000000,-9844.739029,-229.828649
1010.699627,-1110.308913,-9770.718434,-383.047749
1010.699951,-1258.350101,-10955.047942,0.000000
1010.700275,-962.267725,-10584.944971,-536.266849
1010.700598,-666.185348,-10584.944971,-1149.143247
1010.700922,-1332.370696,-10658.965565,-229.828649
1010.701246,0.000000,-11029.068536,-1072.533697
1010.701570,888.247130,-10362.883188,-689.485948
1010.701894,518.144159,-9474.636058,-383.047749
1010.702218,-592.164754,-11251.130318,-1149.143247
1010.702542,-1110.308913,-11547.212695,-1532.190996
1010.702866,222.061783,-10658.965565,-153.219100
1010.703190,1110.308913,-10066.800811,0.000000
1010.703514,666.185348,-9548.656652,-919.314598
1010.703838,-1184.329507,-8734.430116,-2145.067394
1010.704162,-2146.597232,-9918.759623,-1762.019645
1010.704486,-1258.350101,-10807.006753,-1302.362347
1010.704809,888.247130,-9918.759623,-995.924147
1010.705133,370.102971,-9474.636058,-153.219100
1010.705457,-1110.308913,-8734.430116,-459.657299
1010.705781,-814.226536,-9400.615463,-459.657299
1010.706105,370.102971,-9696.697840,-995.924147
1010.706429,888.247130,-9030.512492,-766.095498
1010.706753,518.144159,-9178.553681,-1225.752797
1010.707077,0.000000,-8216.285956,-1378.971896
1010.707401,0.000000,-8734.430116,-76.609550
1010.707725,1332.370696,-9622.677246,76.609550
1010.708049,962.267725,-9622.677246,-153.219100
1010.708373,0.000000,-8808.450710,-1225.752797
1010.708697,0.000000,-8142.265362,153.219100
1010.709020,1628.453072,-8660.409521,-153.219100
1010.709344,2368.659014,-9252.574275,536.266849
1010.709668,666.185348,-9622.677246,229.828649
1010.709992,-740.205942,-8734.430116,-306.438199
1010.710316,0.000000,-8956.491898,-612.876398
1010.710640,1184.329507,-9252.574275,459.657299
1010.710964,1850.514855,-9992.780217,229.828649
1010.711288,1258.350101,-9548.656652,-689.485948
1010.711612,-222.061783,-9474.636058,-459.657299
1010.711936,-296.082377,-10140.821405,-536.266849
1010.712260,0.000000,-10140.821405,-919.314598
1010.712584,-370.102971,-9696.697840,-766.095498
1010.712907,-1110.308913,-9548.656652,-842.705048
1010.713231,-1332.370696,-10732.986159,0.000000
1010.713555,-518.144159,-11399.171507,76.609550
1010.713879,-518.144159,-10732.986159,306.438199
1010.714203,-1258.350101,-10066.800811,229.828649
1010.714527,-2072.576638,-9400.615463,-306.438199
1010.714851,-2368.659014,-10140.821405,689.485948
1010.715175,-1628.453072,-10140.821405,995.924147
1010.715499,-1184.329507,-9770.718434,76.609550
1010.715823,-2368.659014,-8956.491898,-229.828649
1010.716147,-2738.761985,-9030.512492,-383.047749
1010.716471,-1332.370696,-9844.739029,-153.219100
1010.716795,666.185348,-10066.800811,0.000000
1010.717118,1036.288319,-9400.615463,383.047749
1010.717442,1110.308913,-9474.636058,0.000000
1010.717766,518.144159,-10066.800811,0.000000
1010.718090,518.144159,-10510.924376,383.047749
1010.718414,888.247130,-9992.780217,612.876398
1010.718738,222.061783,-10732.986159,612.876398
1010.719062,-1110.308913,-10288.862594,536.266849
1010.719386,-592.164754,-9992.780217,919.314598
1010.719710,1110.308913,-10066.800811,1762.019645
1010.720034,1998.556043,-10288.862594,766.095498
1010.720358,814.226536,-9770.718434,689.485948
1010.720682,-222.061783,-8882.471304,842.705048
1010.721006,-666.185348,-9474.636058,766.095498
1010.721329,148.041188,-10510.924376,1455.581446
1010.721653,0.000000,-10362.883188,1532.190996
1010.721977,-518.144159,-9548.656652,689.485948
1010.722301,222.061783,-9326.594869,383.047749
1010.722625,1850.514855,-9992.780217,1455.581446
1010.722949,2368.659014,-9992.780217,766.095498
1010.723273,1184.329507,-8290.306550,612.876398
1010.723597,0.000000,-8142.265362,1302.362347
1010.723921,0.000000,-10066.800811,2298.286494
1010.724245,1110.308913,-9770.718434,919.314598
1010.724569,592.164754,-8068.244768,306.438199
1010.724893,-1110.308913,-8438.347739,0.000000
1010.725216,-1110.308913,-8660.409521,-612.876398
1010.725540,222.061783,-9400.615463,383.047749
1010.725864,296.082377,-8586.388927,1072.533697
1010.726188,-1332.370696,-7624.121203,153.219100
1010.726512,-2442.679609,-8438.347739,-536.266849
1010.726836,-2294.638420,-9326.594869,-229.828649
1010.727160,-1332.370696,-9326.594869,459.657299
1010.727484,-444.123565,-8216.285956,612.876398
1010.727808,0.000000,-7402.059420,306.438199
1010.728132,0.000000,-8586.388927,536.266849
1010.728456,444.123565,-10214.842000,995.924147
1010.728780,888.247130,-9474.636058,0.000000
1010.729104,74.020594,-8956.491898,-459.657299
1010.729427,-740.205942,-9252.574275,-689.485948
1010.729751,0.000000,-10140.821405,-229.828649
1010.730075,0.000000,-10436.903782,0.000000
1010.730399,-296.082377,-10066.800811,229.828649
1010.730723,-1184.329507,-10732.986159,-1302.362347
1010.731047,-1850.514855,-11029.068536,-1608.800546
1010.731371,-740.205942,-10732.986159,-1302.362347
1010.731695,0.000000,-10362.883188,-995.924147
1010.732019,444.123565,-9918.759623,-689.485948
1010.732343,-222.061783,-11473.192101,-536.266849
1010.732667,-296.082377,-11769.274478,-1225.752797
1010.732991,444.123565,-11029.068536,-1149.143247
1010.733314,1110.308913,-11547.212695,-1532.190996
1010.733638,1332.370696,-12287.418637,-1762.019645
1010.733962,740.205942,-11991.336260,-2528.115143
1010.734286,-370.102971,-11991.336260,-2451.505594
1010.734610,-74.020594,-11991.336260,-1149.143247
1010.734934,1628.453072,-11769.274478,-1915.238745
1010.735258,2368.659014,-11473.192101,-1608.800546
1010.735582,1184.329507,-10510.924376,-766.095498
1010.735906,1554.432478,-10436.903782,-995.924147
1010.736230,1110.308913,-10066.800811,-1302.362347
1010.736554,0.000000,-9844.739029,-1072.533697
1010.736878,-888.247130,-8438.347739,-1378.971896
1010.737202,-740.205942,-8290.306550,-1608.800546
1010.737525,-962.267725,-9622.677246,-459.657299
1010.737849,1036.288319,-9030.512492,0.000000
1010.738173,1332.370696,-8364.327145,0.000000
1010.738497,962.267725,-7550.100608,-383.047749
1010.738821,1110.308913,-7624.121203,-536.266849
1010.739145,1332.370696,-7402.059420,0.000000
1010.739469,1332.370696,-7402.059420,0.000000
1010.739793,148.041188,-8216.285956,459.657299
1010.740117,-370.102971,-7994.224174,-229.828649
1010.740441,-962.267725,-7179.997637,-306.438199
1010.740765,0.000000,-7105.977043,-153.219100
1010.741089,592.164754,-8290.306550,76.609550
1010.741413,814.226536,-8660.409521,-689.485948
1010.741736,-296.082377,-8068.244768,1302.362347
1010.742060,-1702.473667,-8364.327145,536.266849
1010.742384,-2146.597232,-8956.491898,76.609550
1010.742708,-1554.432478,-8808.450710,-459.657299
1010.743032,-962.267725,-8586.388927,-689.485948
1010.743356,-740.205942,-9844.739029,-306.438199
1010.743680,-222.061783,-9992.780217,-536.266849
1010.744004,296.082377,-9918.759623,306.438199
1010.744328,740.205942,-10362.883188,306.438199
1010.744652,444.123565,-11029.068536,689.485948
1010.744976,-592.164754,-11251.130318,153.219100
1010.745300,-1110.308913,-11029.068536,-229.828649
1010.745623,-1406.391290,-11399.171507,-383.047749
1010.745947,-740.205942,-11473.192101,-459.657299
1010.746271,-370.102971,-11251.130318,0.000000
1010.746595,-666.185348,-11103.089130,229.828649
1010.746919,-370.102971,-11177.109724,459.657299
1010.747243,-296.082377,-11029.068536,0.000000
1010.747567,0.000000,-11325.150913,-153.219100
1010.747891,-222.061783,-11325.150913,383.047749
1010.748215,-148.041188,-10732.986159,-383.047749
1010.748539,-444.123565,-10288.862594,536.266849
1010.748863,-592.164754,-10732.986159,612.876398
1010.749187,148.041188,-11473.192101,1072.533697
1010.749511,592.164754,-11695.253884,1455.581446
1010.749834,1776.494261,-10807.006753,1149.143247
1010.750158,2072.576638,-10436.903782,1072.533697
1010.750482,1850.514855,-10584.944971,1149.143247
1010.750806,1554.432478,-11029.068536,1685.410096
1010.751130,0.000000,-11325.150913,1838.629195
1010.751454,-814.226536,-10436.903782,1838.629195
1010.751778,-1184.329507,-9252.574275,1838.629195
1010.752102,-1110.308913,-8660.409521,1378.971896
1010.752426,-1702.473667,-8438.347739,2451.505594
1010.752750,-1702.473667,-7698.141797,1225.752797
1010.753074,-1776.494261,-6735.874072,1302.362347
1010.753398,-1406.391290,-6587.832884,2068.457845
1010.753722,-592.164754,-7105.977043,2145.067394
1010.754045,74.020594,-6957.935855,1915.238745
1010.754369,0.000000,-5625.565159,1378.971896
1010.754693,-296.082377,-5181.441594,1915.238745
1010.755017,0.000000,-6735.874072,536.266849
1010.755341,-666.185348,-7105.977043,306.438199
1010.755665,-518.144159,-6809.894666,1225.752797
1010.755989,1184.329507,-7476.080014,1225.752797
1010.756313,2294.638420,-7772.162391,0.000000
1010.756637,1406.391290,-7476.080014,612.876398
1010.756961,888.247130,-8142.265362,689.485948
1010.757285,1110.308913,-9548.656652,-689.485948
1010.757609,888.247130,-10436.903782,229.828649
1010.757932,296.082377,-9770.718434,0.000000
1010.758256,-370.102971,-9474.636058,-1072.533697
1010.758580,-888.247130,-10066.800811,-1455.581446
1010.758904,-592.164754,-10658.965565,-2451.505594
1010.759228,-370.102971,-11473.192101,-1915.238745
1010.759552,-444.123565,-11843.295072,-1991.848295
1010.759876,-444.123565,-12065.356855,-1915.238745
1010.760200,-222.061783,-11399.171507,-1378.971896
1010.760524,1036.288319,-11547.212695,-1532.190996
1010.760848,666.185348,-12657.521608,-1915.238745
1010.761172,222.061783,-13471.748144,-2221.676944
1010.761496,518.144159,-12435.459826,-1378.971896
1010.761820,2368.659014,-11325.150913,-1608.800546
1010.762143,2886.803174,-11103.089130,-3217.601092
1010.762467,518.144159,-10807.006753,-2834.553343
1010.762791,0.000000,-11843.295072,-2451.505594
1010.763115,-148.041188,-12953.603985,-2987.772442
1010.763439,0.000000,-11917.315666,-3294.210641
1010.763763,-962.267725,-10362.883188,-1838.629195
1010.764087,-1850.514855,-9992.780217,-2757.943793
1010.764411,-1406.391290,-10881.027347,-3753.867940
1010.764735,-1184.329507,-10214.842000,-3064.381992
1010.765059,-148.041188,-10510.924376,-2068.457845
1010.765383,-444.123565,-10955.047942,-1991.848295
1010.765707,-74.020594,-10584.944971,-1149.143247
1010.766031,148.041188,-9622.677246,-842.705048
1010.766354,444.123565,-9326.594869,-995.924147
1010.766678,-148.041188,-10584.944971,-689.485948
1010.767002,-1554.432478,-9992.780217,-1149.143247
1010.767326,-1924.535449,-8216.285956,-995.924147
1010.767650,-1184.329507,-8364.327145,153.219100
1010.767974,222.061783,-8586.388927,-383.047749
1010.768298,518.144159,-8216.285956,-383.047749
1010.768622,0.000000,-7550.100608,689.485948
1010.768946,666.185348,-7624.121203,-383.047749
1010.769270,1702.473667,-6587.832884,-612.876398
1010.769594,370.102971,-6143.709319,842.705048
1010.769913,-814.226536,-7105.977043,689.485948
1010.770237,222.061783,-8068.244768,0.000000
1010.770561,814.226536,-7402.059420,689.485948
1010.770885,1110.308913,-6735.874072,1149.143247
1010.771209,1406.391290,-8808.450710,1225.752797
1010.771533,1110.308913,-8808.450710,995.924147
1010.771858,1554.432478,-7254.018232,1378.971896
1010.772182,296.082377,-9252.574275,1225.752797
1010.772506,0.000000,-9622.677246,0.000000
1010.772830,-1110.308913,-9178.553681,76.609550
1010.773154,-2368.659014,-10362.883188,612.876398
1010.773478,-740.205942,-10436.903782,76.609550
1010.773802,222.061783,-9400.615463,536.266849
1010.774126,-370.102971,-10288.862594,0.000000
1010.774450,-740.205942,-11251.130318,919.314598
1010.774774,222.061783,-11547.212695,995.924147
1010.775098,370.102971,-11103.089130,1225.752797
1010.775422,-148.041188,-10955.047942,1225.752797
1010.775746,-1184.329507,-11547.212695,306.438199
1010.776071,-888.247130,-11029.068536,383.047749
1010.776395,-296.082377,-11325.150913,612.876398
1010.776719,-296.082377,-11325.150913,-689.485948
1010.777043,-666.185348,-10436.903782,-229.828649
1010.777367,-666.185348,-10881.027347,-842.705048
1010.777691,0.000000,-10807.006753,-612.876398
1010.778015,148.041188,-10658.965565,0.000000
1010.778339,-370.102971,-10214.842000,0.000000
1010.778663,-592.164754,-10510.924376,76.609550
1010.778987,0.000000,-11029.068536,459.657299
1010.779311,1628.453072,-11399.171507,2145.067394
1010.779635,1850.514855,-11695.253884,3064.381992
1010.779960,1628.453072,-11103.089130,2528.115143
1010.780284,148.041188,-10066.800811,2298.286494
1010.780608,-666.185348,-10510.924376,2145.067394
1010.780932,-962.267725,-10362.883188,1838.629195
1010.781256,-444.123565,-9474.636058,1685.410096
1010.781580,0.000000,-7920.203579,2068.457845
1010.781904,-814.226536,-8438.347739,1149.143247
1010.782228,-1480.411884,-8808.450710,459.657299
1010.782552,-2220.617826,-7550.100608,766.095498
1010.782876,-1776.494261,-6809.894666,919.314598
1010.783200,-1036.288319,-6587.832884,536.266849
1010.783524,-1258.350101,-7254.018232,919.314598
1010.783849,-1110.308913,-7031.956449,1149.143247
1010.784173,0.000000,-6587.832884,995.924147
1010.784497,1406.391290,-7402.059420,2221.676944
1010.784821,1554.432478,-7698.141797,1762.019645
1010.785145,1184.329507,-7105.977043,1149.143247
1010.785469,666.185348,-7698.141797,1532.190996
1010.785793,1332.370696,-8512.368333,536.266849
1010.786117,1258.350101,-9178.553681,0.000000
1010.786441,222.061783,-8882.471304,-919.314598
1010.786765,-1036.288319,-8142.265362,-1838.629195
1010.787089,-1036.288319,-8364.327145,-1685.410096
1010.787413,-370.102971,-9400.615463,-1532.190996
1010.787738,-444.123565,-11103.089130,-1762.019645
1010.788062,-1036.288319,-11103.089130,-2451.505594
1010.788386,-518.144159,-10362.883188,-2604.724693
1010.788710,0.000000,-10584.944971,-1838.629195
1010.789034,444.123565,-11177.109724,-1915.238745
1010.789358,370.102971,-12213.398043,-1608.800546
1010.789682,-1036.288319,-11769.274478,-1378.971896
1010.790006,-1702.473667,-11843.295072,-2145.067394
1010.790330,-592.164754,-12361.439231,-1072.533697
1010.790654,1036.288319,-11843.295072,-1378.971896
1010.790978,1258.350101,-11325.150913,-2451.505594
1010.791302,592.164754,-10436.903782,-1915.238745
1010.791626,814.226536,-11621.233289,-2298.286494
1010.791951,1406.391290,-12805.562797,-2068.457845
1010.792275,962.267725,-11991.336260,-1685.410096
1010.792599,0.000000,-11103.089130,-2068.457845
1010.792923,0.000000,-10807.006753,-2374.896044
1010.793247,740.205942,-11029.068536,-3370.820191
1010.793571,1036.288319,-10807.006753,-2528.115143
1010.793895,888.247130,-11399.171507,-1915.238745
1010.794219,666.185348,-11621.233289,-995.924147
1010.794543,-74.020594,-10658.965565,-1149.143247
1010.794867,0.000000,-8734.430116,-536.266849
1010.795191,74.020594,-8660.409521,-306.438199
1010.795515,0.000000,-9622.677246,-1455.581446
1010.795840,-1036.288319,-9326.594869,-1072.533697
1010.796164,-1924.535449,-8882.471304,76.609550
1010.796488,-1554.432478,-7920.203579,995.924147
1010.796812,-1554.432478,-8734.430116,459.657299
1010.797136,-962.267725,-8882.471304,1072.533697
1010.797460,-518.144159,-8512.368333,612.876398
1010.797784,-296.082377,-8438.347739,-76.609550
1010.798108,222.061783,-8364.327145,-306.438199
1010.798432,444.123565,-7920.203579,842.705048
1010.798756,1406.391290,-8142.265362,612.876398
1010.799080,2220.617826,-8364.327145,536.266849
1010.799404,1110.308913,-7624.121203,689.485948
1010.799729,1184.329507,-7476.080014,459.657299
1010.800053,592.164754,-8142.265362,0.000000
1010.800377,0.000000,-8586.388927,459.657299
1010.800701,-444.123565,-7920.203579,1378.971896
1010.801025,592.164754,-7328.038826,1149.143247
1010.801349,-444.123565,-7772.162391,1225.752797
1010.801673,-1184.329507,-8364.327145,842.705048
1010.801997,-1184.329507,-7994.224174,919.314598
1010.802321,-518.144159,-8142.265362,689.485948
1010.802645,-296.082377,-8956.491898,612.876398
1010.802969,-1258.350101,-9326.594869,153.219100
1010.803293,-1406.391290,-9252.574275,459.657299
1010.803617,-740.205942,-10881.027347,1072.533697
1010.803942,0.000000,-11621.233289,919.314598
1010.804266,-222.061783,-10436.903782,76.609550
1010.804590,-1036.288319,-11029.068536,229.828649
1010.804914,-1776.494261,-12361.439231,0.000000
1010.805238,-1702.473667,-12657.521608,-612.876398
1010.805562,-1406.391290,-12139.377449,0.000000
1010.805886,-1628.453072,-11177.109724,-383.047749
1010.806210,-1480.411884,-10807.006753,-306.438199
1010.806534,-444.123565,-10658.965565,0.000000
1010.806858,0.000000,-11399.171507,766.095498
1010.807182,592.164754,-11769.274478,0.000000
1010.807506,592.164754,-10658.965565,-306.438199
1010.807831,666.185348,-10436.903782,766.095498
1010.808155,1554.432478,-11251.130318,995.924147
1010.808479,2812.782580,-11251.130318,1532.190996
1010.808803,2220.617826,-10881.027347,2221.676944
1010.809127,1332.370696,-11473.192101,1915.238745
1010.809451,1702.473667,-11621.233289,2145.067394
1010.809775,1776.494261,-10732.986159,1762.019645
1010.810099,1998.556043,-9178.553681,1608.800546
1010.810423,1110.308913,-9844.739029,1455.581446
1010.810747,222.061783,-10362.883188,689.485948
1010.811071,-814.226536,-9696.697840,1532.190996
1010.811395,-1110.308913,-8808.450710,1455.581446
1010.811720,-1258.350101,-7772.162391,919.314598
1010.812044,-1480.411884,-7550.100608,-153.219100
1010.812368,-2886.803174,-7846.182985,76.609550
1010.812692,-2590.720797,-7994.224174,153.219100
1010.813016,-1184.329507,-7698.141797,919.314598
1010.813340,148.041188,-6883.915261,1685.410096
1010.813664,222.061783,-6217.729913,1072.533697
1010.813988,148.041188,-6735.874072,1838.629195
1010.814312,1110.308913,-7105.977043,919.314598
1010.814636,1110.308913,-7846.182985,1225.752797
1010.814960,74.020594,-7994.224174,612.876398
1010.815284,0.000000,-7476.080014,0.000000
1010.815609,-518.144159,-7476.080014,0.000000
1010.815933,-296.082377,-7105.977043,-536.266849
1010.816257,518.144159,-7846.182985,0.000000
1010.816581,444.123565,-9770.718434,-1532.190996
1010.816905,-444.123565,-9104.533087,-1455.581446
1010.817229,-1184.329507,-8216.285956,-1608.800546
1010.817553,-814.226536,-8660.409521,-2451.505594
1010.817877,-814.226536,-10584.944971,-2221.676944
1010.818201,-1184.329507,-11251.130318,-2681.334243
1010.818525,-222.061783,-11325.150913,-2068.457845
1010.818849,740.205942,-11177.109724,-2145.067394
1010.819173,2072.576638,-11103.089130,-1991.848295
1010.819497,2146.597232,-12065.356855,-1225.752797
1010.819822,1998.556043,-12805.562797,-1149.143247
1010.820146,1702.473667,-13101.645173,-1378.971896
1010.820470,1110.308913,-13027.624579,-1532.190996
1010.820794,592.164754,-11991.336260,-2221.676944
1010.821118,0.000000,-11991.336260,-2221.676944
1010.821442,-370.102971,-12065.356855,-2298.286494
1010.821766,-296.082377,-12509.480420,-2757.943793
1010.822090,148.041188,-11843.295072,-2145.067394
1010.822414,1776.494261,-11399.171507,-1532.190996
1010.822738,1628.453072,-11251.130318,-1991.848295
1010.823062,888.247130,-11695.253884,-1685.410096
1010.823386,148.041188,-10807.006753,-2298.286494
1010.823711,148.041188,-10658.965565,-2374.896044
1010.824035,-518.144159,-11029.068536,-2221.676944
1010.824359,-1184.329507,-10732.986159,-1532.190996
1010.824683,-1258.350101,-10658.965565,-459.657299
1010.825007,-740.205942,-9326.594869,-383.047749
1010.825331,-814.226536,-9252.574275,-842.705048
1010.825655,-888.247130,-9104.533087,-766.095498
1010.825979,-740.205942,-8734.430116,-766.095498
1010.826303,-1036.288319,-9622.677246,612.876398
1010.826627,-592.164754,-8586.388927,1302.362347
1010.826951,0.000000,-8216.285956,1302.362347
1010.827275,-1332.370696,-7698.141797,1455.581446
1010.827600,-1406.391290,-6883.915261,995.924147
1010.827924,-444.123565,-6069.688724,459.657299
1010.828248,296.082377,-6291.750507,995.924147
1010.828572,888.247130,-7624.121203,1532.190996
1010.828896,370.102971,-7402.059420,1302.362347
1010.829220,-518.144159,-5847.626942,1302.362347
1010.829544,-962.267725,-5329.482782,612.876398
1010.829868,-1036.288319,-7105.977043,689.485948
1010.830192,-814.226536,-7920.203579,229.828649
1010.830516,-1036.288319,-7698.141797,536.266849
1010.830840,-592.164754,-7328.038826,612.876398
1010.831164,1332.370696,-7846.182985,612.876398
1010.831488,2294.638420,-9622.677246,1378.971896
1010.831813,2442.679609,-10436.903782,1838.629195
1010.832137,2146.597232,-10066.800811,1991.848295
1010.832461,1702.473667,-10214.842000,842.705048
1010.832785,0.000000,-9770.718434,76.609550
1010.833109,-1184.329507,-11695.253884,76.609550
1010.833433,-666.185348,-13175.665768,0.000000
1010.833757,814.226536,-12583.501014,229.828649
1010.834081,962.267725,-11399.171507,612.876398
1010.834405,-370.102971,-11621.233289,76.609550
1010.834729,-1998.556043,-11991.336260,-766.095498
1010.835053,-3256.906145,-11695.253884,-1762.019645
1010.835377,-2960.823768,-12213.398043,-1149.143247
1010.835702,-1554.432478,-12139.377449,-153.219100
1010.836026,-592.164754,-12139.377449,153.219100
1010.836350,-1258.350101,-10510.924376,612.876398
1010.836674,-1332.370696,-9548.656652,0.000000
1010.836998,0.000000,-9770.718434,536.266849
1010.837322,1332.370696,-12139.377449,1072.533697
1010.837646,1406.391290,-12731.542202,1072.533697
1010.837970,1998.556043,-10140.821405,2145.067394
1010.838294,2812.782580,-9770.718434,2221.676944
1010.838618,2738.761985,-11177.109724,1838.629195
1010.838942,814.226536,-11325.150913,1225.752797
1010.839266,-1776.494261,-10214.842000,536.266849
1010.839591,-2886.803174,-8734.430116,459.657299
1010.839915,-1850.514855,-8586.388927,536.266849
1010.840239,-814.226536,-8734.430116,1608.800546
1010.840563,-666.185348,-8586.388927,1532.190996
1010.840887,-1628.453072,-7328.038826,842.705048
1010.841211,-2368.659014,-6735.874072,766.095498
1010.841535,-1258.350101,-6957.935855,689.485948
1010.841859,-370.102971,-6883.915261,1838.629195
1010.842183,-592.164754,-7254.018232,1532.190996
1010.842507,-1036.288319,-6439.791695,2068.457845
1010.842831,222.061783,-6439.791695,1838.629195
1010.843155,1628.453072,-7105.977043,1608.800546
1010.843480,1628.453072,-7476.080014,1685.410096
1010.843804,1924.535449,-6513.812290,459.657299
1010.844128,1776.494261,-6439.791695,766.095498
1010.844452,1924.535449,-7550.100608,0.000000
1010.844776,1554.432478,-8290.306550,919.314598
1010.845100,814.226536,-8808.450710,0.000000
1010.845424,-814.226536,-8956.491898,-1149.143247
1010.845748,-1110.308913,-8438.347739,-2068.457845
1010.846072,296.082377,-9104.533087,-2298.286494
1010.846396,666.185348,-9844.739029,-2451.505594
1010.846720,518.144159,-11399.171507,-1838.629195
1010.847044,1258.350101,-11769.274478,-1302.362347
1010.847368,1406.391290,-12065.356855,-1532.190996
1010.847693,962.267725,-12213.398043,-2374.896044
1010.848017,518.144159,-12065.356855,-2604.724693
1010.848341,0.000000,-13101.645173,-2911.162892
1010.848665,0.000000,-14285.974681,-2145.067394
1010.848989,0.000000,-13249.686362,-2451.505594
1010.849313,148.041188,-13101.645173,-1838.629195
1010.849637,-296.082377,-11843.295072,-2528.115143
1010.849961,74.020594,-11621.233289,-2911.162892
1010.850285,-962.267725,-12065.356855,-2757.943793
1010.850609,-1776.494261,-11843.295072,-2911.162892
1010.850933,-1110.308913,-12065.356855,-1991.848295
1010.851257,-370.102971,-11769.274478,-1685.410096
1010.851582,518.144159,-10584.944971,-1225.752797
1010.851906,148.041188,-9326.594869,-2068.457845
1010.852230,0.000000,-9844.739029,-1225.752797
1010.852554,0.000000,-11177.109724,-1302.362347
1010.852878,592.164754,-10732.986159,-1532.190996
1010.853202,370.102971,-9400.615463,0.000000
1010.853526,888.247130,-8586.388927,-1225.752797
1010.853850,1184.329507,-8438.347739,-689.485948
1010.854174,0.000000,-9400.615463,-306.438199
1010.854498,-592.164754,-9474.636058,0.000000
1010.854822,-1480.411884,-8660.409521,153.219100
1010.855146,-1850.514855,-7772.162391,689.485948
1010.855471,-1702.473667,-7994.224174,0.000000
1010.855795,-1628.453072,-8068.244768,153.219100
1010.856119,-1406.391290,-8512.368333,1225.752797
1010.856443,-592.164754,-8660.409521,1685.410096
1010.856767,-296.082377,-6883.915261,1149.143247
1010.857091,-666.185348,-6439.791695,306.438199
1010.857415,-1480.411884,-6069.688724,1532.190996
1010.857739,-814.226536,-7476.080014,689.485948
1010.858063,0.000000,-8364.327145,995.924147
1010.858387,370.102971,-7550.100608,1149.143247
1010.858711,740.205942,-7105.977043,1072.533697
1010.859035,1628.453072,-7772.162391,1455.581446
1010.859359,2590.720797,-9030.512492,1532.190996
1010.859684,2812.782580,-9474.636058,1838.629195
1010.860008,2368.659014,-9326.594869,1608.800546
1010.860332,1184.329507,-9622.677246,459.657299
1010.860656,370.102971,-9474.636058,766.095498
1010.860980,592.164754,-10066.800811,1378.971896
1010.861304,1036.288319,-10436.903782,1149.143247
1010.861628,0.000000,-10584.944971,689.485948
1010.861952,-1184.329507,-10140.821405,0.000000
1010.862276,-666.185348,-10436.903782,383.047749
1010.862600,-296.082377,-10584.944971,76.609550
1010.862924,-222.061783,-11251.130318,612.876398
1010.863248,-1628.453072,-11621.233289,612.876398
1010.863573,-2368.659014,-12287.418637,689.485948
1010.863897,-2294.638420,-12287.418637,689.485948
1010.864221,-1702.473667,-11991.336260,1072.533697
1010.864545,-592.164754,-11843.295072,306.438199
1010.864869,-962.267725,-11177.109724,-383.047749
1010.865193,-1406.391290,-11029.068536,-383.047749
1010.865517,-1258.350101,-11103.089130,459.657299
1010.865841,0.000000,-11029.068536,842.705048
1010.866165,-296.082377,-10214.842000,306.438199
1010.866489,-1480.411884,-9104.533087,0.000000
1010.866813,-1332.370696,-8956.491898,-153.219100
1010.867137,148.041188,-9326.594869,536.266849
1010.867462,888.247130,-9844.739029,1685.410096
1010.867786,888.247130,-9696.697840,1762.019645
1010.868110,666.185348,-9030.512492,1838.629195
1010.868434,222.061783,-8438.347739,1149.143247
1010.868758,-296.082377,-8438.347739,1149.143247
1010.869082,-222.061783,-8660.409521,459.657299
1010.869406,-666.185348,-8956.491898,153.219100
1010.869730,-962.267725,-9030.512492,-153.219100
1010.870054,-222.061783,-8660.409521,0.000000
1010.870378,740.205942,-7402.059420,153.219100
1010.870702,370.102971,-8068.244768,459.657299
1010.871026,-444.123565,-9474.636058,689.485948
1010.871351,-444.123565,-9030.512492,306.438199
1010.871675,-222.061783,-8512.368333,306.438199
1010.871999,666.185348,-8956.491898,1378.971896
1010.872323,1184.329507,-8808.450710,0.000000
1010.872647,444.123565,-9252.574275,689.485948
1010.872971,0.000000,-9178.553681,306.438199
1010.873295,740.205942,-8882.471304,0.000000
1010.873619,1332.370696,-9178.553681,-383.047749
1010.873943,1628.453072,-9104.533087,153.219100
1010.874267,1628.453072,-9104.533087,-919.314598
1010.874592,962.267725,-8142.265362,-2145.067394
1010.874916,666.185348,-8586.388927,-2221.676944
1010.875240,-74.020594,-10436.903782,-2221.676944
1010.875564,-222.061783,-10881.027347,-2834.553343
1010.875888,0.000000,-9844.739029,-2757.943793
1010.876212,592.164754,-10066.800811,-1685.410096
1010.876536,1702.473667,-11843.295072,-1685.410096
1010.876860,740.205942,-12139.377449,-2451.505594
1010.877184,-296.082377,-12139.377449,-1225.752797
1010.877509,-1258.350101,-11547.212695,-1149.143247
1010.877833,296.082377,-11103.089130,-1532.190996
1010.878157,666.185348,-11177.109724,-1455.581446
1010.878481,0.000000,-11325.150913,-1302.362347
1010.878805,0.000000,-10658.965565,-2451.505594
1010.879129,-296.082377,-10732.986159,-1762.019645
1010.879453,-296.082377,-11399.171507,-766.095498
1010.879777,-666.185348,-11251.130318,-1991.848295
1010.880101,-1480.411884,-9474.636058,-2374.896044
1010.880425,-2146.597232,-9918.759623,-1685.410096
1010.880750,-1332.370696,-10807.006753,-1685.410096
1010.881074,-370.102971,-11103.089130,-1455.581446
1010.881398,-740.205942,-9844.739029,-766.095498
1010.881722,-444.123565,-9400.615463,-153.219100
1010.882046,1924.535449,-9474.636058,536.266849
1010.882370,2368.659014,-8808.450710,76.609550
1010.882694,962.267725,-8734.430116,383.047749
1010.883018,-444.123565,-8734.430116,-536.266849
1010.883342,-888.247130,-9104.533087,-459.657299
1010.883666,-592.164754,-8586.388927,-383.047749
1010.883991,-296.082377,-8512.368333,459.657299
1010.884315,-1406.391290,-8882.471304,459.657299
1010.884639,-2146.597232,-9474.636058,229.828649
1010.884963,-1776.494261,-9326.594869,229.828649
1010.885287,-592.164754,-9252.574275,1532.190996
1010.885611,518.144159,-9104.533087,689.485948
1010.885935,592.164754,-8068.244768,1302.362347
1010.886259,740.205942,-8364.327145,2374.896044
1010.886583,1258.350101,-9474.636058,1608.800546
1010.886907,1406.391290,-9770.718434,1915.238745
1010.887232,-222.061783,-9252.574275,1991.848295
1010.887556,-1036.288319,-9104.533087,1838.629195
1010.887880,-962.267725,-8882.471304,689.485948
1010.888204,-592.164754,-8586.388927,306.438199
1010.888528,-518.144159,-8882.471304,1225.752797
1010.888852,0.000000,-9474.636058,1072.533697
1010.889176,370.102971,-8734.430116,919.314598
1010.889500,0.000000,-7846.182985,1149.143247
1010.889824,962.267725,-7772.162391,1685.410096
1010.890148,962.267725,-9474.636058,1685.410096
1010.890473,74.020594,-11103.089130,1149.143247
1010.890797,-222.061783,-9844.739029,1762.019645
1010.891121,518.144159,-8734.430116,1225.752797
1010.891445,1406.391290,-9104.533087,1455.581446
1010.891769,1110.308913,-10362.883188,689.485948
1010.892093,370.102971,-11103.089130,536.266849
1010.892417,0.000000,-11103.089130,995.924147
1010.892741,-296.082377,-10584.944971,153.219100
1010.893065,-740.205942,-10436.903782,766.095498
1010.893389,-888.247130,-9918.759623,306.438199
1010.893714,-222.061783,-9696.697840,-306.438199
1010.894038,-74.020594,-10362.883188,612.876398
1010.894362,148.041188,-10214.842000,1149.143247
1010.894686,222.061783,-9992.780217,229.828649
1010.895010,-592.164754,-9474.636058,383.047749
1010.895334,-1406.391290,-9548.656652,536.266849
1010.895658,-1406.391290,-10214.842000,383.047749
1010.895982,-1036.288319,-10955.047942,689.485948
1010.896306,-1628.453072,-10881.027347,459.657299
1010.896630,-1480.411884,-9326.594869,-306.438199
1010.896955,-1036.288319,-8216.285956,-766.095498
1010.897279,-814.226536,-8956.491898,0.000000
1010.897603,-148.041188,-10436.903782,536.266849
1010.897927,296.082377,-10288.862594,0.000000
1010.898251,296.082377,-9326.594869,383.047749
1010.898575,-148.041188,-8142.265362,-612.876398
1010.898899,74.020594,-8142.265362,-229.828649
1010.899223,518.144159,-9030.512492,-919.314598
1010.899547,-888.247130,-9400.615463,-536.266849
1010.899871,-1702.473667,-9548.656652,0.000000
1010.900196,-592.164754,-9844.739029,459.657299
1010.900520,1554.432478,-9474.636058,0.000000
1010.900844,2368.659014,-9030.512492,-536.266849
1010.901168,1184.329507,-8216.285956,-306.438199
1010.901492,-222.061783,-9252.574275,-919.314598
1010.901816,-148.041188,-9844.739029,-1149.143247
1010.902140,0.000000,-10436.903782,-383.047749
1010.902464,-296.082377,-9992.780217,-1302.362347
1010.902788,-592.164754,-9400.615463,-1915.238745
1010.903112,-148.041188,-9178.553681,-995.924147
1010.903437,1554.432478,-10436.903782,-536.266849
1010.903761,2146.597232,-11843.295072,-306.438199
1010.904085,1406.391290,-10955.047942,-76.609550
1010.904409,1332.370696,-10510.924376,306.438199
1010.904733,1406.391290,-9696.697840,-1378.971896
1010.905057,518.144159,-8956.491898,-1455.581446
1010.905381,-444.123565,-9992.780217,-1685.410096
1010.905705,-1332.370696,-10510.924376,-2451.505594
1010.906029,-2368.659014,-8512.368333,-2145.067394
1010.906354,-962.267725,-8512.368333,-1915.238745
1010.906678,296.082377,-9400.615463,-2298.286494
1010.907002,1184.329507,-9622.677246,-2451.505594
1010.907326,1702.473667,-9474.636058,-1685.410096
1010.907650,1110.308913,-9770.718434,-842.705048
1010.907974,962.267725,-10584.944971,-383.047749
1010.908298,222.061783,-10066.800811,-306.438199
1010.908622,0.000000,-9844.739029,153.219100
1010.908946,1628.453072,-10955.047942,-306.438199
1010.909270,2590.720797,-11103.089130,0.000000
1010.909595,2368.659014,-10955.047942,229.828649
1010.909919,1554.432478,-10140.821405,76.609550
1010.910243,-222.061783,-9992.780217,536.266849
1010.910567,-962.267725,-10510.924376,-306.438199
1010.910891,-962.267725,-9548.656652,-1302.362347
1010.911215,-1258.350101,-9178.553681,-842.705048
1010.911539,-1776.494261,-9844.739029,-995.924147
1010.911863,-1554.432478,-10584.944971,-995.924147
1010.912187,-1184.329507,-9326.594869,-536.266849
1010.912511,-1036.288319,-9104.533087,306.438199
1010.912836,-814.226536,-9844.739029,-919.314598
1010.913160,0.000000,-9474.636058,919.314598
1010.913484,296.082377,-9474.636058,1378.971896
1010.913808,1628.453072,-9474.636058,1608.800546
1010.914132,1776.494261,-9400.615463,1685.410096
1010.914456,592.164754,-8734.430116,1302.362347
1010.914780,-666.185348,-8734.430116,1762.019645
1010.915104,-370.102971,-9844.739029,1685.410096
1010.915428,444.123565,-9400.615463,1762.019645
1010.915752,0.000000,-7624.121203,1302.362347
1010.916077,-1184.329507,-7476.080014,766.095498
1010.916401,-1776.494261,-9178.553681,612.876398
1010.916725,-1036.288319,-10140.821405,766.095498
1010.917049,-296.082377,-9918.759623,1608.800546
1010.917373,-1110.308913,-9474.636058,1225.752797
1010.917697,-1776.494261,-8734.430116,1149.143247
1010.918021,-2368.659014,-8734.430116,1149.143247
1010.918345,-1406.391290,-9178.553681,1685.410096
1010.918669,-444.123565,-9326.594869,1225.752797
1010.918993,148.041188,-9178.553681,1685.410096
1010.919318,1406.391290,-10214.842000,2987.772442
1010.919642,2072.576638,-10732.986159,2911.162892
1010.919966,2368.659014,-8956.491898,3600.648841
1010.920290,814.226536,-8290.306550,1991.848295
1010.920614,-1554.432478,-8660.409521,-689.485948
1010.920938,-1924.535449,-8512.368333,-919.314598
1010.921262,-814.226536,-8290.306550,-306.438199
1010.921586,296.082377,-9030.512492,612.876398
1010.921910,1036.288319,-9104.533087,0.000000
1010.922234,370.102971,-8586.388927,153.219100
1010.922559,-666.185348,-8216.285956,-536.266849
1010.922883,74.020594,-9326.594869,0.000000
1010.923207,1036.288319,-10436.903782,842.705048
1010.923531,1258.350101,-10732.986159,842.705048
1010.923855,148.041188,-10288.862594,1378.971896
1010.924179,-740.205942,-10066.800811,536.266849
1010.924503,-740.205942,-9992.780217,383.047749
1010.924827,74.020594,-10807.006753,-1072.533697
1010.925151,148.041188,-11399.171507,-1149.143247
1010.925475,-296.082377,-11251.130318,0.000000
1010.925800,74.020594,-10214.842000,-612.876398
1010.926124,0.000000,-11325.150913,-306.438199
1010.926448,-888.247130,-12065.356855,-766.095498
1010.926772,-1480.411884,-11843.295072,-1838.629195
1010.927096,-888.247130,-11029.068536,-1225.752797
1010.927420,1036.288319,-10584.944971,-689.485948
1010.927744,2220.617826,-10436.903782,-306.438199
1010.928068,1480.411884,-9474.636058,-229.828649
1010.928392,1110.308913,-9400.615463,536.266849
1010.928716,888.247130,-10214.842000,-766.095498
1010.929041,1110.308913,-8734.430116,-995.924147
1010.929365,592.164754,-7772.162391,-1915.238745
1010.929689,-888.247130,-7994.224174,-766.095498
1010.930013,-666.185348,-8364.327145,-1608.800546
1010.930337,0.000000,-8586.388927,-1378.971896
1010.930661,148.041188,-8882.471304,-1378.971896
1010.930985,148.041188,-8512.368333,-1915.238745
1010.931309,0.000000,-8956.491898,-766.095498
1010.931633,666.185348,-9474.636058,-995.924147
1010.931957,1332.370696,-9548.656652,-229.828649
1010.932282,962.267725,-9992.780217,76.609550
1010.932606,74.020594,-10510.924376,0.000000
1010.932930,-814.226536,-10288.862594,-1149.143247
1010.933254,-1406.391290,-9178.553681,-1225.752797
1010.933578,-1628.453072,-9400.615463,-842.705048
1010.933902,-1924.535449,-10881.027347,-1149.143247
1010.934226,-2220.617826,-10362.883188,-1072.533697
1010.934550,-2590.720797,-9178.553681,-1685.410096
1010.934874,-2368.659014,-8364.327145,-1608.800546
1010.935199,-1332.370696,-8956.491898,-1149.143247
1010.935523,-888.247130,-9622.677246,-1302.362347
1010.935847,592.164754,-9400.615463,-689.485948
1010.936171,1258.350101,-9622.677246,-306.438199
1010.936495,1406.391290,-9696.697840,-306.438199
1010.936819,1702.473667,-10362.883188,-459.657299
1010.937143,1702.473667,-10658.965565,-612.876398
1010.937467,2590.720797,-9622.677246,-536.266849
1010.937791,3256.906145,-9178.553681,-229.828649
1010.938115,2590.720797,-10510.924376,689.485948
1010.938440,1702.473667,-11695.253884,536.266849
1010.938764,222.061783,-11029.068536,0.000000
1010.939088,-888.247130,-9918.759623,-612.876398
1010.939412,-1554.432478,-9770.718434,-766.095498
1010.939736,-2146.597232,-10955.047942,-459.657299
1010.940060,-2368.659014,-10362.883188,-306.438199
1010.940384,-2368.659014,-10140.821405,766.095498
1010.940708,-1776.494261,-9918.759623,1072.533697
1010.941032,-1998.556043,-10140.821405,459.657299
1010.941356,-2146.597232,-10807.006753,0.000000
1010.941681,-814.226536,-9622.677246,612.876398
1010.942005,518.144159,-10140.821405,2298.286494
1010.942329,1998.556043,-11325.150913,2528.115143
1010.942653,2442.679609,-9622.677246,1838.629195
1010.942977,740.205942,-8290.306550,1302.362347
1010.943301,-518.144159,-9030.512492,1072.533697
1010.943625,148.041188,-9696.697840,0.000000
1010.943949,888.247130,-9326.594869,919.314598
1010.944273,296.082377,-7994.224174,689.485948
1010.944597,-592.164754,-7105.977043,-153.219100
1010.944922,-1110.308913,-7105.977043,76.609550
1010.945246,0.000000,-9030.512492,995.924147
1010.945570,888.247130,-9400.615463,1838.629195
1010.945894,148.041188,-8882.471304,1225.752797
1010.946218,-1332.370696,-7402.059420,1225.752797
1010.946542,-814.226536,-7920.203579,1302.362347
1010.946866,222.061783,-8808.450710,1838.629195
1010.947190,592.164754,-10140.821405,2451.505594
1010.947514,296.082377,-9770.718434,1455.581446
1010.947838,148.041188,-8882.471304,2068.457845
1010.948163,0.000000,-9474.636058,1838.629195
1010.948487,0.000000,-9474.636058,842.705048
1010.948811,-740.205942,-8808.450710,-306.438199
1010.949135,-1702.473667,-8956.491898,-536.266849
1010.949459,-1776.494261,-10066.800811,-459.657299
1010.949783,-296.082377,-10288.862594,0.000000
1010.950107,814.226536,-9622.677246,459.657299
1010.950431,296.082377,-9622.677246,0.000000
1010.950755,148.041188,-9178.553681,-919.314598
1010.951079,666.185348,-9252.574275,-459.657299
1010.951404,2072.576638,-9474.636058,536.266849
1010.951728,3108.864956,-10362.883188,919.314598
1010.952052,2072.576638,-10436.903782,459.657299
1010.952376,814.226536,-9326.594869,153.219100
1010.952700,888.247130,-9252.574275,-1149.143247
1010.953024,740.205942,-10066.800811,0.000000
1010.953348,74.020594,-11251.130318,-306.438199
1010.953672,-370.102971,-11029.068536,-1225.752797
1010.953996,-888.247130,-10362.883188,-995.924147
1010.954320,-1258.350101,-10214.842000,-919.314598
1010.954645,-296.082377,-10436.903782,-919.314598
1010.954969,-444.123565,-11547.212695,-919.314598
1010.955293,-1702.473667,-10510.924376,-995.924147
1010.955617,-1850.514855,-10510.924376,-1685.410096
1010.955941,-1850.514855,-10362.883188,-1225.752797
1010.956265,-1998.556043,-10658.965565,-1225.752797
1010.956589,-2072.576638,-10362.883188,-1762.019645
1010.956913,-2146.597232,-9770.718434,-1302.362347
1010.957237,-1924.535449,-9474.636058,-1608.800546
1010.957561,-666.185348,-9400.615463,-1455.581446
1010.957886,148.041188,-9548.656652,-1608.800546
1010.958210,518.144159,-10140.821405,-1685.410096
1010.958534,1332.370696,-10807.006753,-459.657299
1010.958858,1850.514855,-10955.047942,-306.438199
1010.959182,1924.535449,-10214.842000,153.219100
1010.959506,1110.308913,-9178.553681,-766.095498
1010.959830,-222.061783,-8364.327145,-1455.581446
1010.960154,0.000000,-9104.533087,229.828649
1010.960478,2146.597232,-9252.574275,0.000000
1010.960802,3256.906145,-8882.471304,766.095498
1010.961127,1554.432478,-8882.471304,995.924147
1010.961451,-148.041188,-8956.491898,0.000000
1010.961775,-1332.370696,-9178.553681,-766.095498
1010.962099,-2220.617826,-9030.512492,-1072.533697
1010.962423,-2442.679609,-8956.491898,-919.314598
1010.962747,-2146.597232,-9178.553681,-1378.971896
1010.963071,-814.226536,-9622.677246,-383.047749
1010.963395,148.041188,-9326.594869,0.000000
1010.963719,1110.308913,-9104.533087,153.219100
1010.964044,888.247130,-9030.512492,-383.047749
1010.964368,666.185348,-8956.491898,-842.705048
1010.964692,1702.473667,-10140.821405,0.000000
1010.965016,3034.844362,-11547.212695,1072.533697
1010.965340,3034.844362,-11547.212695,842.705048
1010.965664,962.267725,-9844.739029,-1072.533697
1010.965988,-592.164754,-9326.594869,-306.438199
1010.966312,1110.308913,-10732.986159,-689.485948
1010.966636,2590.720797,-11177.109724,-459.657299
1010.966960,740.205942,-11399.171507,76.609550
1010.967285,-888.247130,-9622.677246,-766.095498
1010.967609,-1258.350101,-9326.594869,-1685.410096
1010.967933,-1924.535449,-9326.594869,-2451.505594
1010.968257,-2146.597232,-9474.636058,0.000000
1010.968581,-1850.514855,-10807.006753,0.000000
1010.968905,-1554.432478,-10288.862594,1149.143247
1010.969229,-740.205942,-9770.718434,1915.238745
1010.969553,1258.350101,-9474.636058,1072.533697
1010.969877,2368.659014,-9474.636058,842.705048
1010.970201,2146.597232,-10362.883188,1762.019645
1010.970526,1554.432478,-11325.150913,1915.238745
1010.970850,444.123565,-10436.903782,1455.581446
1010.971174,-814.226536,-8956.491898,1225.752797
1010.971498,-1924.535449,-8364.327145,0.000000
1010.971822,-2664.741391,-8586.388927,-995.924147
1010.972146,-2664.741391,-9030.512492,-842.705048
1010.972470,-2442.679609,-7920.203579,153.219100
1010.972794,-1554.432478,-7402.059420,536.266849
1010.973118,-814.226536,-8142.265362,1608.800546
1010.973442,-1036.288319,-8364.327145,2068.457845
1010.973766,-888.247130,-8586.388927,1455.581446
1010.974090,0.000000,-8512.368333,1302.362347
1010.974414,222.061783,-9178.553681,995.924147
1010.974738,-370.102971,-9252.574275,689.485948
1010.975062,-740.205942,-9474.636058,612.876398
1010.975386,-666.185348,-9696.697840,689.485948
1010.975710,1332.370696,-10288.862594,1149.143247
1010.976034,1850.514855,-10881.027347,153.219100
1010.976358,1110.308913,-10436.903782,-306.438199
1010.976682,148.041188,-10288.862594,-306.438199
1010.977006,-444.123565,-10214.842000,-612.876398
1010.977330,-962.267725,-10807.006753,-229.828649
1010.977654,-1850.514855,-11103.089130,-459.657299
1010.977978,-2146.597232,-10288.862594,-919.314598
1010.978302,-1110.308913,-9918.759623,153.219100
1010.978626,1554.432478,-10288.862594,306.438199
1010.978950,2590.720797,-10288.862594,-229.828649
1010.979274,1332.370696,-9770.718434,383.047749
1010.979598,1480.411884,-10362.883188,1072.533697
1010.979922,2442.679609,-11029.068536,383.047749
1010.980246,2294.638420,-10362.883188,-306.438199
1010.980570,814.226536,-8882.471304,-306.438199
1010.980894,-518.144159,-9326.594869,-1532.190996
1010.981218,444.123565,-10732.986159,-1915.238745
1010.981542,1998.556043,-9696.697840,-766.095498
1010.981866,1554.432478,-9918.759623,-459.657299
1010.982190,740.205942,-10066.800811,-1378.971896
1010.982514,222.061783,-9474.636058,-1149.143247
1010.982838,222.061783,-9992.780217,-766.095498
1010.983162,0.000000,-9474.636058,76.609550
1010.983486,-222.061783,-9696.697840,-995.924147
1010.983810,-1184.329507,-8808.450710,76.609550
1010.984134,-740.205942,-8956.491898,536.266849
1010.984458,592.164754,-9178.553681,-383.047749
1010.984782,740.205942,-9252.574275,612.876398
1010.985106,-592.164754,-8586.388927,153.219100
1010.985430,-1406.391290,-8364.327145,-1378.971896
1010.985754,-1554.432478,-8068.244768,-766.095498
1010.986078,-888.247130,-8364.327145,-766.095498
1010.986402,-1258.350101,-8956.491898,-1378.971896
1010.986726,-2146.597232,-9030.512492,-2221.676944
1010.987050,-1998.556043,-8660.409521,-1149.143247
1010.987374,-592.164754,-9474.636058,-689.485948
1010.987698,1036.288319,-10658.965565,536.266849
1010.988022,1554.432478,-10807.006753,229.828649
1010.988346,1406.391290,-10510.924376,689.485948
1010.988670,1036.288319,-11325.150913,995.924147
1010.988994,370.102971,-10658.965565,153.219100
1010.989319,-296.082377,-10066.800811,0.000000
1010.989643,-1332.370696,-10214.842000,-1149.143247
1010.989967,-1628.453072,-10436.903782,-1532.190996
1010.990291,-1554.432478,-9918.759623,-1915.238745
1010.990615,-2146.597232,-9992.780217,-1915.238745
1010.990939,-1628.453072,-10807.006753,-1072.533697
1010.991263,0.000000,-10732.986159,-306.438199
1010.991587,444.123565,-10510.924376,0.000000
1010.991911,444.123565,-10288.862594,153.219100
1010.992235,1258.350101,-9252.574275,229.828649
1010.992559,1184.329507,-10140.821405,383.047749
1010.992883,666.185348,-9918.759623,842.705048
1010.993207,222.061783,-9770.718434,766.095498
1010.993531,370.102971,-9918.759623,1225.752797
1010.993855,296.082377,-9992.780217,766.095498
1010.994179,0.000000,-9326.594869,-153.219100
1010.994503,-444.123565,-8956.491898,0.000000
1010.994827,-518.144159,-8586.388927,-612.876398
1010.995151,592.164754,-8586.388927,-1149.143247
1010.995475,296.082377,-9474.636058,0.000000
1010.995799,-148.041188,-9030.512492,-153.219100
1010.996123,74.020594,-8882.471304,306.438199
1010.996447,518.144159,-9252.574275,612.876398
1010.996771,1702.473667,-9474.636058,459.657299
1010.997095,1184.329507,-9992.780217,612.876398
1010.997419,296.082377,-9918.759623,459.657299
1010.997743,-222.061783,-9474.636058,995.924147
1010.998067,74.020594,-9104.533087,1302.362347
1010.998391,370.102971,-8956.491898,766.095498
1010.998715,0.000000,-8956.491898,0.000000
1010.999039,-1184.329507,-8586.388927,0.000000
1010.999363,-1184.329507,-9030.512492,153.219100
1010.999687,-814.226536,-8956.491898,-229.828649
1011.000011,-296.082377,-8068.244768,0.000000
1011.000335,-296.082377,-7476.080014,459.657299
1011.000659,0.000000,-9252.574275,0.000000
1011.000983,0.000000,-9474.636058,0.000000
1011.001307,592.164754,-9030.512492,0.000000
1011.001631,370.102971,-9326.594869,-229.828649
1011.001955,-222.061783,-9770.718434,383.047749
1011.002279,222.061783,-10510.924376,229.828649
1011.002603,888.247130,-9770.718434,-306.438199
1011.002927,74.020594,-9918.759623,0.000000
1011.003251,-148.041188,-10584.944971,-229.828649
1011.003575,370.102971,-11843.295072,-306.438199
1011.003899,0.000000,-11251.130318,229.828649
1011.004223,-370.102971,-9992.780217,-306.438199
1011.004547,-1184.329507,-11177.109724,-1225.752797
1011.004871,-1036.288319,-11399.171507,-1532.190996
1011.005195,0.000000,-11695.253884,0.000000
1011.005519,370.102971,-10955.047942,229.828649
1011.005843,370.102971,-10658.965565,76.609550
1011.006167,148.041188,-10436.903782,-612.876398
1011.006491,666.185348,-9104.533087,-919.314598
1011.006815,888.247130,-9844.739029,-995.924147
1011.007139,1110.308913,-10214.842000,-842.705048
1011.007463,1332.370696,-9770.718434,383.047749
1011.007787,444.123565,-9252.574275,0.000000
1011.008111,0.000000,-8734.430116,-459.657299
1011.008436,-740.205942,-8068.244768,-689.485948
1011.008760,-592.164754,-9030.512492,-383.047749
1011.009084,-518.144159,-9400.615463,-1072.533697
1011.009408,-518.144159,-8734.430116,76.609550
1011.009732,444.123565,-8586.388927,1302.362347
1011.010056,1110.308913,-8660.409521,459.657299
1011.010380,1184.329507,-8734.430116,0.000000
1011.010704,0.000000,-8290.306550,153.219100
1011.011028,-296.082377,-8956.491898,-689.485948
1011.011352,-296.082377,-9474.636058,-1302.362347
1011.011676,-666.185348,-8438.347739,-995.924147
1011.012000,444.123565,-8956.491898,0.000000
1011.012324,0.000000,-9992.780217,-536.266849
1011.012648,-518.144159,-10140.821405,-1378.971896
1011.012972,-1628.453072,-9474.636058,-459.657299
1011.013296,-1702.473667,-8882.471304,-153.219100
1011.013620,-592.164754,-9696.697840,-842.705048
1011.013944,-962.267725,-10140.821405,383.047749
1011.014268,-148.041188,-10214.842000,229.828649
1011.014592,592.164754,-10140.821405,0.000000
1011.014916,0.000000,-9992.780217,0.000000
1011.015240,-518.144159,-8808.450710,-1455.581446
1011.015564,-2146.597232,-8364.327145,-1378.971896
1011.015888,-2220.617826,-9400.615463,-1532.190996
1011.016212,-296.082377,-9844.739029,-1608.800546
1011.016536,148.041188,-10658.965565,-919.314598
1011.016860,814.226536,-10584.944971,-612.876398
1011.017184,1480.411884,-10214.842000,0.000000
1011.017508,2442.679609,-11325.150913,459.657299
1011.017832,1850.514855,-11029.068536,153.219100
1011.018156,740.205942,-11251.130318,-306.438199
1011.018480,0.000000,-11991.336260,0.000000
1011.018804,0.000000,-12509.480420,459.657299
1011.019128,888.247130,-11843.295072,306.438199
1011.019452,0.000000,-10881.027347,0.000000
1011.019776,-1554.432478,-10214.842000,-919.314598
1011.020100,-2368.659014,-9400.615463,-459.657299
1011.020424,-1406.391290,-10288.862594,0.000000
1011.020748,-1184.329507,-10807.006753,306.438199
1011.021072,0.000000,-10066.800811,842.705048
1011.021396,444.123565,-9326.594869,1149.143247
1011.021720,666.185348,-8956.491898,1608.800546
1011.022044,1998.556043,-8438.347739,995.924147
1011.022368,2220.617826,-9178.553681,3217.601092
1011.022692,1406.391290,-9104.533087,1991.848295
1011.023016,-222.061783,-7402.059420,0.000000
1011.023340,-2368.659014,-7031.956449,0.000000
1011.023664,-1776.494261,-8216.285956,153.219100
1011.023988,888.247130,-9178.553681,0.000000
1011.024312,1036.288319,-8438.347739,1838.629195
1011.024636,-148.041188,-6957.935855,1455.581446
1011.024960,444.123565,-6365.771101,153.219100
1011.025284,888.247130,-6291.750507,842.705048
1011.025608,444.123565,-8438.347739,1149.143247
1011.025932,296.082377,-9918.759623,1455.581446
1011.026256,370.102971,-9400.615463,1991.848295
1011.026580,444.123565,-8808.450710,1762.019645
1011.026904,222.061783,-9178.553681,1072.533697
1011.027228,-444.123565,-9474.636058,-229.828649
1011.027553,-1998.556043,-9474.636058,-919.314598
1011.027877,-2368.659014,-9770.718434,-536.266849
1011.028201,-518.144159,-9844.739029,-383.047749
1011.028525,148.041188,-9992.780217,0.000000
1011.028849,-296.082377,-10214.842000,-536.266849
1011.029173,-222.061783,-9992.780217,-1455.581446
1011.029497,74.020594,-10658.965565,-1225.752797
1011.029821,296.082377,-11325.150913,-919.314598
1011.030145,0.000000,-11695.253884,-459.657299
1011.030469,222.061783,-10288.862594,-153.219100
1011.030793,148.041188,-10584.944971,0.000000
1011.031117,-148.041188,-11325.150913,-1149.143247
1011.031441,-1184.329507,-11103.089130,-1838.629195
1011.031765,-1406.391290,-10881.027347,-1225.752797
1011.032089,-518.144159,-11621.233289,-995.924147
1011.032413,444.123565,-10955.047942,-1302.362347
1011.032737,370.102971,-10066.800811,0.000000
1011.033061,-148.041188,-10955.047942,-459.657299
1011.033385,-814.226536,-11843.295072,-1455.581446
1011.033709,-1184.329507,-11325.150913,-995.924147
1011.034033,-888.247130,-10140.821405,-1072.533697
1011.034357,0.000000,-9770.718434,-842.705048
1011.034681,-740.205942,-9918.759623,-1072.533697
1011.035005,-1036.288319,-10288.862594,-995.924147
1011.035329,-1258.350101,-9622.677246,-536.266849
1011.035653,0.000000,-8956.491898,-1072.533697
1011.035977,222.061783,-9252.574275,153.219100
1011.036301,74.020594,-8882.471304,-153.219100
1011.036625,444.123565,-7994.224174,-153.219100
1011.036949,0.000000,-8364.327145,459.657299
1011.037273,1110.308913,-8290.306550,842.705048
1011.037597,2220.617826,-8216.285956,919.314598
1011.037921,1924.535449,-7846.182985,1149.143247
1011.038245,1702.473667,-7550.100608,995.924147
1011.038569,1702.473667,-7550.100608,842.705048
1011.038893,2072.576638,-7772.162391,536.266849
1011.039217,1184.329507,-8512.368333,76.609550
1011.039541,-222.061783,-7698.141797,-766.095498
1011.039865,0.000000,-8660.409521,536.266849
1011.040189,518.144159,-8586.388927,-459.657299
1011.040513,74.020594,-8956.491898,76.609550
1011.040837,-1702.473667,-9474.636058,-383.047749
1011.041161,-2368.659014,-9696.697840,-1225.752797
1011.041485,-814.226536,-10140.821405,-306.438199
1011.041809,1110.308913,-9918.759623,612.876398
1011.042133,1332.370696,-10807.006753,-459.657299
1011.042457,666.185348,-10362.883188,-612.876398
1011.042781,74.020594,-11029.068536,-383.047749
1011.043105,666.185348,-11547.212695,-383.047749
1011.043429,1332.370696,-10955.047942,-1532.190996
1011.043753,740.205942,-10288.862594,-1149.143247
1011.044077,-1036.288319,-10436.903782,-1455.581446
1011.044401,0.000000,-10881.027347,-1532.190996
1011.044725,296.082377,-10584.944971,-766.095498
1011.045049,0.000000,-11177.109724,-612.876398
1011.045373,-370.102971,-10288.862594,-2145.067394
1011.045697,-296.082377,-9992.780217,-1608.800546
1011.046021,74.020594,-10807.006753,-689.485948
1011.046345,370.102971,-11399.171507,0.000000
1011.046670,-740.205942,-11325.150913,-383.047749
1011.046994,-1554.432478,-10732.986159,-229.828649
1011.047318,-444.123565,-9844.739029,-842.705048
1011.047642,592.164754,-10584.944971,0.000000
1011.047966,962.267725,-11473.192101,766.095498
1011.048290,148.041188,-11177.109724,0.000000
1011.048614,-592.164754,-9622.677246,-459.657299
1011.048938,-962.267725,-9622.677246,-383.047749
1011.049262,-296.082377,-9548.656652,-1762.019645
1011.049586,0.000000,-9400.615463,-459.657299
1011.049910,-1480.411884,-9474.636058,153.219100
1011.050234,-1258.350101,-9474.636058,153.219100
1011.050558,-148.041188,-8882.471304,306.438199
1011.050882,0.000000,-8216.285956,0.000000
1011.051206,148.041188,-7846.182985,383.047749
1011.051530,1110.308913,-7920.203579,1532.190996
1011.051854,1924.535449,-8882.471304,1378.971896
1011.052178,1924.535449,-7328.038826,536.266849
1011.052502,1332.370696,-6069.688724,842.705048
1011.052826,222.061783,-6809.894666,383.047749
1011.053150,0.000000,-8290.306550,-229.828649
1011.053474,-1036.288319,-8438.347739,0.000000
1011.053798,-370.102971,-8734.430116,1991.848295
1011.054122,814.226536,-9252.574275,1608.800546
1011.054446,1406.391290,-8734.430116,-306.438199
1011.054770,1110.308913,-7550.100608,76.609550
1011.055094,1036.288319,-8882.471304,-153.219100
1011.055418,2442.679609,-9992.780217,-766.095498
1011.055742,2442.679609,-10362.883188,-842.705048
1011.056066,1480.411884,-8438.347739,-1455.581446
1011.056390,962.267725,-8290.306550,-2604.724693
1011.056714,888.247130,-9992.780217,-3677.258390
1011.057038,962.267725,-11843.295072,-2374.896044
1011.057362,1776.494261,-11695.253884,-3064.381992
1011.057686,2146.597232,-10362.883188,-2604.724693
1011.058010,1332.370696,-11473.192101,-689.485948
1011.058334,2812.782580,-11769.274478,-1455.581446
1011.058658,4145.153275,-11029.068536,-1685.410096
1011.058982,2960.823768,-10658.965565,-1532.190996
1011.059306,2294.638420,-10288.862594,-2298.286494
1011.059630,2368.659014,-10362.883188,-2221.676944
1011.059954,2294.638420,-10066.800811,-1915.238745
1011.060278,2294.638420,-10881.027347,-1685.410096
1011.060602,2294.638420,-11547.212695,-2451.505594
1011.060926,1258.350101,-10955.047942,-3753.867940
1011.061250,148.041188,-11325.150913,-3753.867940
1011.061574,74.020594,-9770.718434,-4749.792088
1011.061898,518.144159,-10140.821405,-4979.620737
1011.062222,1036.288319,-10214.842000,-4290.134789
1011.062546,1628.453072,-9770.718434,-3830.477490
1011.062870,1998.556043,-9474.636058,-3447.429741
1011.063194,2812.782580,-9178.553681,-2451.505594
1011.063518,4441.235652,-9770.718434,-2451.505594
1011.063842,5033.400406,-9992.780217,-1149.143247
1011.064166,4515.256246,-9992.780217,-1455.581446
1011.064490,4219.173869,-10214.842000,-2068.457845
1011.064814,3923.091493,-9326.594869,-2451.505594
1011.065138,3034.844362,-9548.656652,-1302.362347
1011.065462,2368.659014,-10214.842000,-2604.724693
1011.065787,1184.329507,-9474.636058,-3753.867940
1011.066111,-888.247130,-8290.306550,-3753.867940
1011.066435,-1850.514855,-8068.244768,-4136.915689
1011.066759,-592.164754,-8216.285956,-4596.572988
1011.067083,296.082377,-7624.121203,-3370.820191
1011.067407,1850.514855,-8068.244768,-2604.724693
1011.067731,3923.091493,-7920.203579,-1685.410096
1011.068055,4737.318029,-9326.594869,-766.095498
1011.068379,4367.215058,-9400.615463,-383.047749
1011.068703,3552.988522,-8734.430116,-689.485948
1011.069027,3108.864956,-8734.430116,-1838.629195
1011.069351,2886.803174,-9400.615463,-2145.067394
1011.069675,1998.556043,-9844.739029,-995.924147
1011.069999,1110.308913,-10214.842000,-1762.019645
1011.070323,592.164754,-9252.574275,-1991.848295
1011.070647,444.123565,-8290.306550,-1991.848295
1011.070971,740.205942,-8438.347739,-2911.162892
1011.071295,888.247130,-8956.491898,-3140.991542
1011.071619,592.164754,-8438.347739,-2298.286494
1011.071943,148.041188,-8734.430116,-2298.286494
1011.072267,1332.370696,-9548.656652,-1991.848295
1011.072591,3256.906145,-9918.759623,-919.314598
1011.072915,3923.091493,-10807.006753,-383.047749
1011.073239,3627.009116,-11473.192101,-1762.019645
1011.073563,2886.803174,-11325.150913,-1762.019645
1011.073887,1702.473667,-12287.418637,-1455.581446
1011.074211,1258.350101,-12287.418637,-2221.676944
1011.074536,1036.288319,-10807.006753,-1991.848295
1011.074860,1776.494261,-10807.006753,-1762.019645
1011.075184,2072.576638,-11769.274478,-2221.676944
1011.075508,1998.556043,-10881.027347,-2451.505594
1011.075832,1776.494261,-9622.677246,-2298.286494
1011.076156,888.247130,-9770.718434,-2987.772442
1011.076480,1850.514855,-9622.677246,-2757.943793
1011.076804,2812.782580,-9252.574275,-1915.238745
1011.077128,3034.844362,-9548.656652,-1838.629195
1011.077452,3034.844362,-9844.739029,-2911.162892
1011.077776,2442.679609,-9252.574275,-3064.381992
1011.078100,1776.494261,-9770.718434,-2604.724693
1011.078424,2294.638420,-9770.718434,-3217.601092
1011.078748,3108.864956,-9400.615463,-3064.381992
1011.079073,3108.864956,-9622.677246,-1532.190996
1011.079397,2960.823768,-9400.615463,-1378.971896
1011.079721,3923.091493,-9030.512492,-612.876398
1011.080045,2812.782580,-9918.759623,-689.485948
1011.080369,1924.535449,-9548.656652,-1302.362347
1011.080693,1850.514855,-8364.327145,-1685.410096
1011.081017,1850.514855,-9252.574275,-1225.752797
1011.081341,1184.329507,-9548.656652,-2374.896044
1011.081665,740.205942,-8216.285956,-1991.848295
1011.081989,-444.123565,-7846.182985,-2757.943793
1011.082313,-444.123565,-9770.718434,-3600.648841
1011.082637,0.000000,-9548.656652,-4060.306139
1011.082961,296.082377,-7772.162391,-3294.210641
1011.083285,74.020594,-8512.368333,-2451.505594
1011.083610,1628.453072,-9992.780217,-2681.334243
1011.083934,3478.967927,-9178.553681,-1455.581446
1011.084258,3478.967927,-8364.327145,-153.219100
1011.084582,3701.029710,-9918.759623,0.000000
1011.084906,4737.318029,-10955.047942,-229.828649
1011.085230,5995.668130,-10066.800811,0.000000
1011.085554,4959.379811,-9474.636058,-229.828649
1011.085878,1776.494261,-10214.842000,-842.705048
1011.086202,444.123565,-10362.883188,-1762.019645
1011.086526,222.061783,-9178.553681,-2221.676944
1011.086850,-740.205942,-8882.471304,-2911.162892
1011.087174,-1480.411884,-8956.491898,-3294.210641
1011.087498,0.000000,-9622.677246,-3294.210641
1011.087822,2072.576638,-10066.800811,-2757.943793
1011.088147,2664.741391,-9474.636058,-2221.676944
1011.088471,2368.659014,-9474.636058,-1455.581446
1011.088795,2220.617826,-10140.821405,-1685.410096
1011.089119,2664.741391,-10584.944971,-1532.190996
1011.089443,4515.256246,-10658.965565,-1072.533697
1011.089767,4959.379811,-10955.047942,-689.485948
1011.090091,4663.297435,-12065.356855,-383.047749
1011.090415,3701.029710,-11843.295072,-612.876398
1011.090739,4367.215058,-9992.780217,-536.266849
1011.091063,4441.235652,-9252.574275,-1532.190996
1011.091387,2886.803174,-9696.697840,-2451.505594
1011.091711,370.102971,-9474.636058,-3140.991542
1011.092035,-518.144159,-8364.327145,-3524.039291
1011.092359,0.000000,-8142.265362,-3830.477490
1011.092684,740.205942,-8586.388927,-3677.258390
1011.093008,1628.453072,-8512.368333,-3217.601092
1011.093332,2072.576638,-8882.471304,-2451.505594
1011.093656,2960.823768,-9178.553681,-2145.067394
1011.093980,3108.864956,-9178.553681,-1302.362347
1011.094304,3330.926739,-9992.780217,-995.924147
1011.094628,3701.029710,-10658.965565,-689.485948
1011.094952,4737.318029,-10881.027347,-1072.533697
1011.095276,4145.153275,-10214.842000,-1149.143247
1011.095600,2146.597232,-9992.780217,-1915.238745
1011.095924,-222.061783,-10658.965565,-2451.505594
1011.096248,-1036.288319,-10584.944971,-3064.381992
1011.096572,-444.123565,-7846.182985,-3524.039291
1011.096896,222.061783,-7846.182985,-3753.867940
1011.097221,148.041188,-9474.636058,-4060.306139
1011.097545,-592.164754,-9992.780217,-4519.963438
1011.097869,-962.267725,-9252.574275,-4060.306139
1011.098193,-444.123565,-7920.203579,-2834.553343
1011.098517,2146.597232,-8364.327145,-1455.581446
1011.098841,4663.297435,-9844.739029,-766.095498
1011.099165,5329.482782,-10140.821405,-1072.533697
1011.099489,4293.194464,-10436.903782,-1762.019645
1011.099813,2738.761985,-11251.130318,-1915.238745
1011.100137,1628.453072,-11769.274478,-2145.067394
1011.100461,222.061783,-10955.047942,-1838.629195
1011.100785,-296.082377,-10140.821405,-2374.896044
1011.101109,-740.205942,-9548.656652,-2911.162892
1011.101433,148.041188,-9474.636058,-3524.039291
1011.101757,1332.370696,-9474.636058,-3447.429741
1011.102082,2368.659014,-10658.965565,-2987.772442
1011.102406,2146.597232,-9844.739029,-2604.724693
1011.102730,1184.329507,-8808.450710,-2374.896044
1011.103054,222.061783,-8364.327145,-2221.676944
1011.103378,74.020594,-9252.574275,-2911.162892
1011.103702,1184.329507,-9770.718434,-2145.067394
1011.104026,3256.906145,-9992.780217,-2145.067394
1011.104350,5181.441594,-10066.800811,-1072.533697
1011.104674,6513.812290,-9918.759623,-689.485948
1011.104998,6217.729913,-9548.656652,-1225.752797
1011.105322,4441.235652,-9474.636058,-1608.800546
1011.105646,2146.597232,-9474.636058,-2145.067394
1011.105970,814.226536,-9622.677246,-2911.162892
1011.106294,888.247130,-9104.533087,-2374.896044
1011.106619,2072.576638,-9474.636058,-1455.581446
1011.106943,2960.823768,-9400.615463,-1378.971896
1011.107267,3330.926739,-8882.471304,-1225.752797
1011.107591,3478.967927,-8660.409521,-1072.533697
1011.107915,2812.782580,-8364.327145,-689.485948
1011.108239,2886.803174,-8956.491898,-383.047749
1011.108563,2664.741391,-9548.656652,-383.047749
1011.108887,2368.659014,-9918.759623,-1455.581446
1011.109211,1332.370696,-10288.862594,-2221.676944
1011.109535,592.164754,-10510.924376,-3064.381992
1011.109859,0.000000,-10066.800811,-3600.648841
1011.110183,-148.041188,-9474.636058,-3217.601092
1011.110507,444.123565,-9474.636058,-2987.772442
1011.110831,1406.391290,-9474.636058,-1762.019645
1011.111156,2368.659014,-9622.677246,-1149.143247
1011.111480,2886.803174,-9918.759623,-612.876398
1011.111804,2590.720797,-9770.718434,-229.828649
1011.112128,3034.844362,-9622.677246,76.609550
1011.112452,3404.947333,-9696.697840,612.876398
1011.112776,3330.926739,-9696.697840,536.266849
1011.113100,2442.679609,-9400.615463,-306.438199
1011.113424,1110.308913,-8956.491898,-1378.971896
1011.113748,-222.061783,-9548.656652,-2528.115143
1011.114072,-1480.411884,-10066.800811,-3753.867940
1011.114396,-2146.597232,-9918.759623,-4366.744339
1011.114720,-2220.617826,-9474.636058,-4749.792088
1011.115044,-1110.308913,-8882.471304,-4213.525239
1011.115368,888.247130,-8364.327145,-3370.820191
1011.115693,2960.823768,-9178.553681,-1915.238745
1011.116017,4885.359217,-9992.780217,-536.266849
1011.116341,5403.503377,-9844.739029,612.876398
1011.116665,5699.585753,-10288.862594,689.485948
1011.116989,5477.523971,-10807.006753,919.314598
1011.117313,5033.400406,-10658.965565,919.314598
1011.117637,3849.070898,-10732.986159,306.438199
1011.117961,2220.617826,-10510.924376,-919.314598
1011.118285,296.082377,-10510.924376,-2834.553343
1011.118609,-2146.597232,-10214.842000,-4136.915689
1011.118933,-3923.091493,-8882.471304,-4673.182538
1011.119257,-3404.947333,-9178.553681,-3524.039291
1011.119581,-1628.453072,-8882.471304,-2374.896044
1011.119905,148.041188,-8734.430116,-1225.752797
1011.120230,1554.432478,-8068.244768,-153.219100
1011.120554,2516.700203,-8956.491898,0.000000
1011.120878,3256.906145,-9770.718434,-229.828649
1011.121202,3478.967927,-10288.862594,76.609550
1011.121526,2442.679609,-10658.965565,612.876398
1011.121850,2294.638420,-10807.006753,76.609550
1011.122174,2146.597232,-10436.903782,-766.095498
1011.122498,1628.453072,-10584.944971,-1532.190996
1011.122822,1554.432478,-11325.150913,-1991.848295
1011.123146,962.267725,-9992.780217,-2834.553343
1011.123470,666.185348,-8438.347739,-2451.505594
1011.123794,148.041188,-6883.915261,-2068.457845
1011.124118,740.205942,-7031.956449,-2834.553343
1011.124442,1628.453072,-6587.832884,-2451.505594
1011.124767,2812.782580,-6957.935855,-1455.581446
1011.125091,4663.297435,-7698.141797,-842.705048
1011.125415,5921.647536,-8216.285956,-842.705048
1011.125739,5847.626942,-7772.162391,-153.219100
1011.126063,5329.482782,-8438.347739,-689.485948
1011.126387,4515.256246,-9474.636058,-2298.286494
1011.126711,3182.885551,-10288.862594,-3600.648841
1011.127035,2220.617826,-10436.903782,-3600.648841
1011.127359,2368.659014,-10214.842000,-4443.353888
1011.127683,2664.741391,-10362.883188,-4903.011187
1011.128007,2886.803174,-9548.656652,-4596.572988
1011.128331,2812.782580,-9548.656652,-4979.620737
1011.128655,2442.679609,-9548.656652,-4979.620737
1011.128979,1628.453072,-9400.615463,-4213.525239
1011.129304,2072.576638,-9400.615463,-3447.429741
1011.129628,2664.741391,-10436.903782,-2757.943793
1011.129952,3552.988522,-10955.047942,-2451.505594
1011.130276,4145.153275,-11325.150913,-2528.115143
1011.130600,4663.297435,-11547.212695,-2451.505594
1011.130924,4071.132681,-11695.253884,-3370.820191
1011.131248,3478.967927,-11251.130318,-3524.039291
1011.131572,2294.638420,-11177.109724,-4366.744339
1011.131896,888.247130,-10584.944971,-5898.935335
1011.132220,-592.164754,-10436.903782,-6971.469032
1011.132544,-2146.597232,-10436.903782,-7354.516781
1011.132868,-2812.782580,-10362.883188,-6894.859482
1011.133192,-2072.576638,-10066.800811,-5515.887586
1011.133516,-370.102971,-9326.594869,-5209.449386
1011.133840,2516.700203,-9622.677246,-2681.334243
1011.134165,4885.359217,-10066.800811,-1838.629195
1011.134489,6513.812290,-11029.068536,-919.314598
1011.134813,6365.771101,-11621.233289,-229.828649
1011.135137,5477.523971,-11843.295072,0.000000
1011.135461,3997.112087,-11843.295072,0.000000
1011.135785,1702.473667,-10955.047942,-842.705048
1011.136109,-1776.494261,-9918.759623,-2911.162892
1011.136433,-3775.050304,-9252.574275,-4596.572988
1011.136757,-4293.194464,-9104.533087,-5209.449386
1011.137081,-2516.700203,-8512.368333,-4903.011187
1011.137405,-296.082377,-7994.224174,-3753.867940
1011.137729,1258.350101,-7179.997637,-2757.943793
1011.138053,1924.535449,-7105.977043,-2451.505594
1011.138377,2294.638420,-7402.059420,-1225.752797
1011.138702,2442.679609,-8438.347739,612.876398
1011.139026,3775.050304,-8586.388927,1149.143247
1011.139350,5551.544565,-9252.574275,2145.067394
1011.139674,7031.956449,-9770.718434,2681.334243
1011.139998,7254.018232,-10362.883188,2221.676944
1011.140322,5181.441594,-10584.944971,2068.457845
1011.140646,1776.494261,-9992.780217,536.266849
1011.140970,-1480.411884,-8734.430116,-612.876398
1011.141294,-2368.659014,-7550.100608,-1762.019645
1011.141618,-2294.638420,-7550.100608,-2221.676944
1011.141942,-1406.391290,-7402.059420,-2068.457845
1011.142266,-740.205942,-8142.265362,-2298.286494
1011.142590,-666.185348,-8290.306550,-1915.238745
1011.142914,296.082377,-7698.141797,-612.876398
1011.143239,1850.514855,-8290.306550,1455.581446
1011.143563,4293.194464,-8808.450710,2145.067394
1011.143887,5921.647536,-9474.636058,2374.896044
1011.144211,6439.791695,-10584.944971,1685.410096
1011.144535,5625.565159,-11399.171507,1072.533697
1011.144859,4367.215058,-11547.212695,842.705048
1011.145183,3923.091493,-10584.944971,306.438199
1011.145507,3404.947333,-9474.636058,-766.095498
1011.145831,2220.617826,-8956.491898,-2145.067394
1011.146155,0.000000,-9474.636058,-3753.867940
1011.146479,-2664.741391,-9770.718434,-4979.620737
1011.146803,-2516.700203,-9992.780217,-4826.401637
1011.147127,0.000000,-9770.718434,-3370.820191
1011.147451,3256.906145,-9326.594869,-2298.286494
1011.147776,4885.359217,-9400.615463,-1149.143247
1011.148100,4737.318029,-9918.759623,-1302.362347
1011.148424,4737.318029,-11769.274478,-919.314598
1011.148748,5107.421000,-12287.418637,-383.047749
1011.149072,6069.688724,-12953.603985,-459.657299
1011.149396,4737.318029,-12583.501014,-383.047749
1011.149720,2442.679609,-11769.274478,-1838.629195
1011.150044,518.144159,-11473.192101,-2681.334243
1011.150368,-296.082377,-11547.212695,-3983.696590
1011.150692,-518.144159,-10140.821405,-4673.182538
1011.151016,-962.267725,-8438.347739,-4979.620737
1011.151340,-666.185348,-7994.224174,-4596.572988
1011.151664,518.144159,-8438.347739,-4443.353888
1011.151988,1850.514855,-9178.553681,-3983.696590
1011.152313,2442.679609,-9400.615463,-3907.087040
1011.152637,2812.782580,-8734.430116,-2911.162892
1011.152961,3034.844362,-8734.430116,-2221.676944
1011.153285,4071.132681,-9844.739029,-1455.581446
1011.153609,5329.482782,-10362.883188,-1762.019645
1011.153933,5255.462188,-10140.821405,-1685.410096
1011.154257,4589.276840,-10288.862594,-1762.019645
1011.154581,3627.009116,-10436.903782,-1838.629195
1011.154905,2072.576638,-9474.636058,-2374.896044
1011.155229,-888.247130,-8068.244768,-3524.039291
1011.155553,-3108.864956,-7698.141797,-3370.820191
1011.155877,-2516.700203,-8142.265362,-4213.525239
1011.156201,-740.205942,-7772.162391,-3983.696590
1011.156525,-370.102971,-7254.018232,-3294.210641
1011.156850,0.000000,-7846.182985,-2604.724693
1011.157174,814.226536,-9400.615463,-2528.115143
1011.157498,2516.700203,-8734.430116,-3140.991542
1011.157822,2812.782580,-7846.182985,-2221.676944
1011.158146,2368.659014,-9548.656652,-2528.115143
1011.158470,1998.556043,-11621.233289,-2911.162892
1011.158794,3404.947333,-10881.027347,-2987.772442
1011.159118,4589.276840,-9622.677246,-2221.676944
1011.159442,4885.359217,-10288.862594,-2451.505594
1011.159766,4367.215058,-11399.171507,-3217.601092
1011.160090,2812.782580,-10140.821405,-2145.067394
1011.160414,1776.494261,-9844.739029,-2221.676944
1011.160738,1332.370696,-10436.903782,-3217.601092
1011.161062,1776.494261,-10140.821405,-2911.162892
1011.161387,2368.659014,-9918.759623,-1762.019645
1011.161711,2738.761985,-10584.944971,-1762.019645
1011.162035,2516.700203,-11029.068536,-2528.115143
1011.162359,1924.535449,-9474.636058,-2528.115143
1011.162683,1110.308913,-9030.512492,-2681.334243
1011.163007,1110.308913,-9474.636058,-3677.258390
1011.163331,1924.535449,-9104.533087,-3983.696590
1011.163655,2294.638420,-10066.800811,-3064.381992
1011.163979,2590.720797,-10955.047942,-3677.258390
1011.164303,2072.576638,-11029.068536,-3447.429741
1011.164627,1628.453072,-11325.150913,-2374.896044
1011.164951,1554.432478,-10955.047942,-2221.676944
1011.165275,2368.659014,-9770.718434,-842.705048
1011.165599,2368.659014,-9844.739029,76.609550
1011.165924,3478.967927,-11029.068536,-536.266849
1011.166248,4367.215058,-10436.903782,-383.047749
1011.166572,3627.009116,-9770.718434,1302.362347
1011.166896,2886.803174,-10288.862594,1225.752797
1011.167220,3330.926739,-9622.677246,-229.828649
1011.167544,2590.720797,-7624.121203,-612.876398
1011.167868,0.000000,-7550.100608,-2221.676944
1011.168192,-1036.288319,-8068.244768,-4596.572988
1011.168516,-1850.514855,-7920.203579,-4366.744339
1011.168840,-2960.823768,-8438.347739,-3983.696590
1011.169164,-2664.741391,-8216.285956,-4290.134789
1011.169488,-370.102971,-7031.956449,-2834.553343
1011.169812,2368.659014,-9030.512492,-1378.971896
1011.170136,4959.379811,-9992.780217,-689.485948
1011.170460,7179.997637,-9548.656652,919.314598
1011.170785,7105.977043,-10732.986159,2911.162892
1011.171109,7328.038826,-11399.171507,2451.505594
1011.171433,6883.915261,-9770.718434,2145.067394
1011.171757,3849.070898,-9548.656652,1302.362347
1011.172081,1332.370696,-10066.800811,-536.266849
1011.172405,740.205942,-9918.759623,-1302.362347
1011.172729,-444.123565,-8808.450710,-2834.553343
1011.173053,-2220.617826,-8438.347739,-3447.429741
1011.173377,-3330.926739,-8438.347739,-3830.477490
1011.173701,-3182.885551,-7846.182985,-4826.401637
1011.174025,-3034.844362,-6809.894666,-5898.935335
1011.174349,-2146.597232,-6513.812290,-5975.544884
1011.174673,444.123565,-7698.141797,-3907.087040
1011.174997,4737.318029,-10584.944971,-2451.505594
1011.175322,7179.997637,-12065.356855,1455.581446
1011.175646,7920.203579,-12435.459826,3217.601092
1011.175970,6513.812290,-13249.686362,2145.067394
1011.176294,4219.173869,-12805.562797,842.705048
1011.176618,2960.823768,-11325.150913,0.000000
1011.176942,3701.029710,-11325.150913,-995.924147
1011.177266,3478.967927,-11251.130318,229.828649
1011.177590,962.267725,-9326.594869,-1302.362347
1011.177914,-1258.350101,-8438.347739,-3064.381992
1011.178238,-2294.638420,-8438.347739,-3983.696590
1011.178562,-2590.720797,-9474.636058,-5209.449386
1011.178886,-3330.926739,-8956.491898,-6971.469032
1011.179211,-4441.235652,-7105.977043,-6741.640382
1011.179535,-3775.050304,-8364.327145,-5209.449386
1011.179859,-518.144159,-10066.800811,-2987.772442
1011.180183,3775.050304,-11103.089130,-1378.971896
1011.180507,5921.647536,-10066.800811,306.438199
1011.180831,6365.771101,-10584.944971,919.314598
1011.181155,5921.647536,-12065.356855,459.657299
1011.181479,5329.482782,-11991.336260,1685.410096
1011.181803,4071.132681,-11843.295072,2987.772442
1011.182127,1480.411884,-11621.233289,1608.800546
1011.182451,-592.164754,-10288.862594,459.657299
1011.182775,-2294.638420,-8364.327145,-536.266849
1011.183099,-2368.659014,-7994.224174,-1225.752797
1011.183424,-2516.700203,-7994.224174,-3064.381992
1011.183748,-3478.967927,-6439.791695,-3370.820191
1011.184072,-3552.988522,-5625.565159,-3140.991542
1011.184396,-1554.432478,-6957.935855,-3600.648841
1011.184720,-740.205942,-7105.977043,-3217.601092
1011.185044,-1628.453072,-7772.162391,-3294.210641
1011.185368,-2590.720797,-9326.594869,-2221.676944
1011.185692,-1480.411884,-11029.068536,-1302.362347
1011.186016,1110.308913,-11251.130318,919.314598
1011.186340,3330.926739,-12287.418637,2757.943793
1011.186664,4515.256246,-12139.377449,3217.601092
1011.186988,5329.482782,-11547.212695,3217.601092
1011.187312,5107.421000,-11325.150913,2911.162892
1011.187637,5255.462188,-10140.821405,2681.334243
1011.187961,3701.029710,-9400.615463,1225.752797
1011.188285,888.247130,-8364.327145,-383.047749
1011.188609,-1554.432478,-8512.368333,-1072.533697
1011.188933,-3108.864956,-9474.636058,-2451.505594
1011.189257,-4589.276840,-9770.718434,-2834.553343
1011.189581,-6661.853478,-9622.677246,-2834.553343
1011.189905,-7402.059420,-7624.121203,-4290.134789
1011.190229,-6587.832884,-8290.306550,-2757.943793
1011.190553,-3849.070898,-10584.944971,-1762.019645
1011.190877,-296.082377,-11177.109724,229.828649
1011.191201,1406.391290,-10214.842000,1378.971896
1011.191526,2664.741391,-9030.512492,1915.238745
1011.191850,4145.153275,-9400.615463,3600.648841
1011.192174,6143.709319,-10658.965565,4213.525239
1011.192498,6291.750507,-10510.924376,3753.867940
1011.192822,4515.256246,-9622.677246,3524.039291
1011.193146,2072.576638,-8808.450710,1838.629195
1011.193470,148.041188,-8660.409521,-383.047749
1011.193794,-1702.473667,-9474.636058,0.000000
1011.194118,-2368.659014,-10214.842000,-1225.752797
1011.194442,-2960.823768,-9474.636058,-2987.772442
1011.194766,-4737.318029,-7994.224174,-2374.896044
1011.195090,-5995.668130,-7328.038826,-2451.505594
1011.195414,-5255.462188,-9178.553681,-2451.505594
1011.195739,-3775.050304,-8808.450710,-1838.629195
1011.196063,-740.205942,-7994.224174,919.314598
1011.196387,2516.700203,-9548.656652,1991.848295
1011.196711,4811.338623,-10732.986159,3064.381992
1011.197035,6217.729913,-10510.924376,3830.477490
1011.197359,5033.400406,-10658.965565,4290.134789
1011.197683,2812.782580,-11769.274478,3524.039291
1011.198007,370.102971,-11325.150913,1685.410096
1011.198331,-1184.329507,-10362.883188,1608.800546
1011.198655,-1850.514855,-10658.965565,0.000000
1011.198979,-2146.597232,-9770.718434,-689.485948
1011.199303,-2220.617826,-8808.450710,-1685.410096
1011.199627,-2812.782580,-8512.368333,-1838.629195
1011.199952,-3330.926739,-7698.141797,-2757.943793
1011.200276,-3775.050304,-7402.059420,-2987.772442
1011.200600,-3627.009116,-7772.162391,-1072.533697
1011.200924,-1702.473667,-8512.368333,-995.924147
1011.201248,740.205942,-7920.203579,-153.219100
1011.201572,2146.597232,-8808.450710,1072.533697
1011.201896,3997.112087,-9992.780217,1838.629195
1011.202220,5699.585753,-11399.171507,3447.429741
1011.202544,6217.729913,-11917.315666,3600.648841
1011.202868,4589.276840,-10732.986159,2681.334243
1011.203192,962.267725,-10436.903782,1149.143247
1011.203516,-962.267725,-10436.903782,0.000000
1011.203841,-1998.556043,-10436.903782,-919.314598
1011.204165,-2664.741391,-9474.636058,-2298.286494
1011.204489,-3701.029710,-8586.388927,-2757.943793
1011.204813,-3849.070898,-8216.285956,-2834.553343
1011.205137,-1998.556043,-8290.306550,-1685.410096
1011.205461,-666.185348,-8512.368333,-1915.238745
1011.205785,-370.102971,-8660.409521,-1072.533697
1011.206109,-1702.473667,-9548.656652,-995.924147
1011.206433,-1258.350101,-11251.130318,-229.828649
1011.206757,296.082377,-10955.047942,1225.752797
1011.207081,3108.864956,-10362.883188,2374.896044
1011.207405,3701.029710,-11029.068536,2834.553343
1011.207729,2516.700203,-11103.089130,-306.438199
1011.208054,518.144159,-9622.677246,-383.047749
1011.208378,-740.205942,-9992.780217,0.000000
1011.208702,-296.082377,-10955.047942,-1532.190996
1011.209026,-814.226536,-10140.821405,-1838.629195
1011.209350,-1924.535449,-8512.368333,-2451.505594
1011.209674,-1184.329507,-8068.244768,-1302.362347
1011.209998,1036.288319,-9548.656652,-1915.238745
1011.210322,1776.494261,-9622.677246,-842.705048
1011.210646,888.247130,-9474.636058,-766.095498
1011.210970,-222.061783,-8586.388927,-2374.896044
1011.211294,-370.102971,-9252.574275,-1149.143247
1011.211618,0.000000,-11251.130318,0.000000
1011.211942,1258.350101,-11621.233289,-306.438199
1011.212267,296.082377,-10066.800811,-766.095498
1011.212591,-962.267725,-9548.656652,-536.266849
1011.212915,-1110.308913,-9474.636058,-536.266849
1011.213239,-370.102971,-9992.780217,-1149.143247
1011.213563,-740.205942,-9844.739029,-612.876398
1011.213887,-1332.370696,-9622.677246,-995.924147
1011.214211,-592.164754,-9844.739029,-766.095498
1011.214535,444.123565,-9770.718434,306.438199
1011.214859,1776.494261,-9770.718434,536.266849
1011.215183,1332.370696,-9400.615463,-383.047749
1011.215507,74.020594,-9104.533087,-1685.410096
1011.215831,-1480.411884,-9178.553681,-1225.752797
1011.216156,-1554.432478,-9474.636058,-1225.752797
1011.216480,-1332.370696,-9696.697840,-383.047749
1011.216804,-666.185348,-9622.677246,-919.314598
1011.217128,-296.082377,-9326.594869,0.000000
1011.217452,592.164754,-10214.842000,919.314598
1011.217776,2146.597232,-10288.862594,0.000000
1011.218100,1406.391290,-9696.697840,1149.143247
1011.218424,-296.082377,-9326.594869,1532.190996
1011.218748,-888.247130,-9178.553681,1378.971896
1011.219072,0.000000,-9326.594869,1378.971896
1011.219396,74.020594,-10066.800811,2528.115143
1011.219720,222.061783,-9474.636058,1378.971896
1011.220044,-740.205942,-8660.409521,842.705048
1011.220369,-1702.473667,-7994.224174,459.657299
1011.220693,-2146.597232,-7772.162391,-459.657299
1011.221017,-2146.597232,-8660.409521,-612.876398
1011.221341,-2516.700203,-9252.574275,-229.828649
1011.221665,-1554.432478,-10214.842000,536.266849
1011.221989,74.020594,-9326.594869,612.876398
1011.222313,1924.535449,-9474.636058,919.314598
1011.222637,1998.556043,-10288.862594,1608.800546
1011.222961,2072.576638,-11473.192101,1225.752797
1011.223285,2368.659014,-11843.295072,1685.410096
1011.223609,2072.576638,-11251.130318,1685.410096
1011.223933,2220.617826,-10955.047942,1608.800546
1011.224257,2072.576638,-11917.315666,1302.362347
1011.224582,1110.308913,-10807.006753,842.705048
1011.224906,0.000000,-9474.636058,229.828649
1011.225230,-1850.514855,-9178.553681,-536.266849
1011.225554,-2664.741391,-9178.553681,-1225.752797
1011.225878,-2294.638420,-8734.430116,-1149.143247
1011.226202,-1184.329507,-8142.265362,306.438199
1011.226526,518.144159,-8660.409521,0.000000
1011.226850,444.123565,-8438.347739,-383.047749
1011.227174,0.000000,-9030.512492,383.047749
1011.227498,-296.082377,-10140.821405,1072.533697
1011.227822,296.082377,-10436.903782,612.876398
1011.228146,666.185348,-8808.450710,459.657299
1011.228471,-148.041188,-8512.368333,229.828649
1011.228795,-444.123565,-9548.656652,-612.876398
1011.229119,296.082377,-10732.986159,0.000000
1011.229443,518.144159,-11103.089130,459.657299
1011.229767,888.247130,-9844.739029,229.828649
1011.230091,148.041188,-9474.636058,-689.485948
1011.230415,-1184.329507,-9178.553681,-1915.238745
1011.230739,-2072.576638,-8586.388927,-1838.629195
1011.231063,-2146.597232,-9030.512492,-1532.190996
1011.231387,-1924.535449,-9844.739029,-842.705048
1011.231711,-592.164754,-10214.842000,-1608.800546
1011.232035,-148.041188,-8882.471304,0.000000
1011.232359,814.226536,-9622.677246,0.000000
1011.232684,1184.329507,-9770.718434,-612.876398
1011.233008,962.267725,-9548.656652,-1149.143247
1011.233332,-370.102971,-9474.636058,-536.266849
1011.233656,-148.041188,-9622.677246,-689.485948
1011.233980,518.144159,-9844.739029,-306.438199
1011.234304,148.041188,-9918.759623,-536.266849
1011.234628,148.041188,-10362.883188,-1072.533697
1011.234952,222.061783,-10658.965565,-1532.190996
1011.235276,-148.041188,-10658.965565,-689.485948
1011.235600,962.267725,-10214.842000,-306.438199
1011.235924,1258.350101,-10140.821405,0.000000
1011.236248,-370.102971,-11251.130318,459.657299
1011.236572,-1480.411884,-11325.150913,-842.705048
1011.236897,-1628.453072,-9918.759623,-1072.533697
1011.237221,-1036.288319,-9326.594869,-1225.752797
1011.237545,0.000000,-9178.553681,-1072.533697
1011.237869,0.000000,-9400.615463,-1608.800546
1011.238193,-592.164754,-9548.656652,0.000000
1011.238517,0.000000,-10140.821405,-459.657299
1011.238841,592.164754,-10288.862594,-612.876398
1011.239165,0.000000,-10066.800811,-612.876398
1011.239489,-370.102971,-10288.862594,-306.438199
1011.239813,222.061783,-11029.068536,-306.438199
1011.240137,1850.514855,-10584.944971,1072.533697
1011.240461,3034.844362,-10214.842000,1762.019645
1011.240786,2220.617826,-10584.944971,1072.533697
1011.241110,444.123565,-9104.533087,459.657299
1011.241434,222.061783,-7920.203579,-306.438199
1011.241758,74.020594,-8290.306550,229.828649
1011.242082,-370.102971,-9252.574275,-995.924147
1011.242406,-1480.411884,-8142.265362,-1149.143247
1011.242730,-2072.576638,-7179.997637,-306.438199
1011.243054,-2368.659014,-7624.121203,-383.047749
1011.243378,-1036.288319,-7994.224174,-842.705048
1011.243702,-740.205942,-8438.347739,-459.657299
1011.244026,148.041188,-9696.697840,229.828649
1011.244350,2146.597232,-10362.883188,1455.581446
1011.244674,2886.803174,-9400.615463,76.609550
1011.244999,1776.494261,-8808.450710,0.000000
1011.245323,-1332.370696,-10436.903782,229.828649
1011.245647,-814.226536,-11177.109724,0.000000
1011.245971,444.123565,-11177.109724,0.000000
1011.246295,740.205942,-9696.697840,383.047749
1011.246619,962.267725,-9400.615463,0.000000
1011.246943,1332.370696,-10658.965565,-842.705048
1011.247267,1184.329507,-10955.047942,-306.438199
1011.247591,296.082377,-10436.903782,76.609550
1011.247915,0.000000,-10510.924376,76.609550
1011.248239,-888.247130,-10362.883188,-919.314598
1011.248563,-2220.617826,-9622.677246,-689.485948
1011.248888,-1924.535449,-10510.924376,-612.876398
1011.249212,-1702.473667,-10362.883188,-612.876398
1011.249536,-1998.556043,-9918.759623,0.000000
1011.249860,-1628.453072,-9770.718434,383.047749
1011.250184,-148.041188,-9030.512492,536.266849
1011.250508,1406.391290,-8882.471304,1149.143247
1011.250832,1480.411884,-9252.574275,1072.533697
1011.251156,296.082377,-9918.759623,766.095498
1011.251480,-666.185348,-10214.842000,-229.828649
1011.251804,-740.205942,-9474.636058,1302.362347
1011.252128,0.000000,-9400.615463,919.314598
1011.252452,1036.288319,-8956.491898,459.657299
1011.252776,0.000000,-9770.718434,153.219100
1011.253101,-888.247130,-11029.068536,76.609550
1011.253425,-444.123565,-11103.089130,536.266849
1011.253749,370.102971,-10140.821405,383.047749
1011.254073,0.000000,-8882.471304,459.657299
1011.254397,-592.164754,-9030.512492,459.657299
1011.254721,-1184.329507,-9252.574275,-153.219100
1011.255045,-1332.370696,-9400.615463,-383.047749
1011.255369,-1258.350101,-9030.512492,76.609550
1011.255693,-962.267725,-10214.842000,1302.362347
1011.256017,-74.020594,-10288.862594,995.924147
1011.256341,1110.308913,-9178.553681,766.095498
1011.256665,1702.473667,-8808.450710,1532.190996
1011.256989,814.226536,-9326.594869,766.095498
1011.257314,148.041188,-10362.883188,0.000000
1011.257638,-1406.391290,-10362.883188,842.705048
1011.257962,-1258.350101,-9252.574275,842.705048
1011.258286,-740.205942,-8290.306550,-383.047749
1011.258610,-1110.308913,-8216.285956,-459.657299
1011.258934,-1406.391290,-8068.244768,-1302.362347
1011.259258,-222.061783,-8068.244768,-919.314598
1011.259582,1406.391290,-8068.244768,153.219100
1011.259906,2590.720797,-8364.327145,-459.657299
1011.260230,2738.761985,-9104.533087,0.000000
1011.260554,1554.432478,-9326.594869,-153.219100
1011.260878,888.247130,-9622.677246,-612.876398
1011.261203,222.061783,-10362.883188,-1455.581446
1011.261527,1036.288319,-10584.944971,-153.219100
1011.261851,1924.535449,-11843.295072,-383.047749
1011.262175,2368.659014,-11473.192101,-306.438199
1011.262499,2812.782580,-10732.986159,-229.828649
1011.262823,2368.659014,-10288.862594,-536.266849
1011.263147,814.226536,-11103.089130,-1455.581446
1011.263471,-814.226536,-11103.089130,-2068.457845
1011.263795,-1480.411884,-9844.739029,-2068.457845
1011.264119,-1924.535449,-9474.636058,-1608.800546
1011.264443,-1480.411884,-9696.697840,-1915.238745
1011.264767,-888.247130,-10955.047942,-1838.629195
1011.265091,-592.164754,-10955.047942,-536.266849
1011.265416,518.144159,-10658.965565,0.000000
1011.265740,740.205942,-10066.800811,-1072.533697
1011.266064,-370.102971,-9770.718434,-459.657299
1011.266388,-518.144159,-10214.842000,-229.828649
1011.266712,296.082377,-10881.027347,76.609550
1011.267036,1036.288319,-10658.965565,459.657299
1011.267360,370.102971,-8808.450710,306.438199
1011.267684,-74.020594,-8586.388927,306.438199
1011.268008,-1258.350101,-9474.636058,-766.095498
1011.268332,-444.123565,-8734.430116,-306.438199
1011.268656,0.000000,-8660.409521,689.485948
1011.268980,222.061783,-8438.347739,-766.095498
1011.269304,-814.226536,-9030.512492,-306.438199
1011.269629,-1924.535449,-9104.533087,-153.219100
1011.269953,-1332.370696,-8808.450710,0.000000
1011.270277,-296.082377,-8956.491898,306.438199
1011.270601,-296.082377,-9474.636058,689.485948
1011.270925,-962.267725,-9178.553681,306.438199
1011.271249,-296.082377,-8956.491898,919.314598
1011.271573,444.123565,-9178.553681,2374.896044
1011.271897,740.205942,-9770.718434,1915.238745
1011.272221,0.000000,-10140.821405,842.705048
1011.272545,-1110.308913,-8068.244768,306.438199
1011.272869,-1554.432478,-8216.285956,842.705048
1011.273193,-1554.432478,-8364.327145,-766.095498
1011.273517,-1850.514855,-8660.409521,0.000000
1011.273841,-2442.679609,-8808.450710,383.047749
1011.274165,-1406.391290,-9474.636058,-689.485948
1011.274489,814.226536,-9030.512492,306.438199
1011.274813,1628.453072,-8660.409521,459.657299
1011.275137,444.123565,-9030.512492,-229.828649
1011.275461,-1110.308913,-9252.574275,-1225.752797
1011.275785,-1628.453072,-9474.636058,-306.438199
1011.276109,-222.061783,-10288.862594,-842.705048
1011.276433,962.267725,-10658.965565,-383.047749
1011.276757,1258.350101,-10807.006753,-612.876398
1011.277081,1480.411884,-11103.089130,-1378.971896
1011.277405,1554.432478,-11325.150913,383.047749
1011.277729,2146.597232,-13101.645173,1149.143247
1011.278053,1258.350101,-12583.501014,306.438199
1011.278377,148.041188,-10955.047942,-919.314598
1011.278701,-666.185348,-10214.842000,-1149.143247
1011.279025,-444.123565,-11399.171507,-766.095498
1011.279349,74.020594,-11399.171507,-995.924147
1011.279673,-148.041188,-10140.821405,306.438199
1011.279997,-518.144159,-9548.656652,306.438199
1011.280321,444.123565,-9474.636058,-306.438199
1011.280645,222.061783,-9252.574275,-153.219100
1011.280969,444.123565,-9030.512492,153.219100
1011.281293,296.082377,-9474.636058,0.000000
1011.281617,0.000000,-9252.574275,-383.047749
1011.281941,-222.061783,-9104.533087,766.095498
1011.282265,666.185348,-8068.244768,229.828649
1011.282589,2368.659014,-8364.327145,0.000000
1011.282913,1480.411884,-9030.512492,229.828649
1011.283237,1480.411884,-9104.533087,459.657299
1011.283561,2368.659014,-9400.615463,1532.190996
1011.283885,2516.700203,-9178.553681,1532.190996
1011.284209,1776.494261,-8512.368333,995.924147
1011.284533,0.000000,-8142.265362,689.485948
1011.284857,-1184.329507,-9400.615463,383.047749
1011.285181,-444.123565,-10955.047942,842.705048
1011.285505,74.020594,-9918.759623,919.314598
1011.285829,-222.061783,-9992.780217,766.095498
1011.286153,-1036.288319,-8808.450710,-306.438199
1011.286477,-1480.411884,-8068.244768,-536.266849
1011.286801,-1332.370696,-9326.594869,-689.485948
1011.287125,-814.226536,-9548.656652,612.876398
1011.287449,-888.247130,-9548.656652,459.657299
1011.287773,-1332.370696,-9104.533087,1149.143247
1011.288097,-1628.453072,-8216.285956,1072.533697
1011.288420,-1406.391290,-7920.203579,383.047749
1011.288744,-1924.535449,-9326.594869,536.266849
1011.289068,-1924.535449,-9474.636058,-383.047749
1011.289392,-962.267725,-8216.285956,1225.752797
1011.289716,0.000000,-8882.471304,1685.410096
1011.290040,296.082377,-8808.450710,0.000000
1011.290364,-592.164754,-7846.182985,-1072.533697
1011.290688,-2664.741391,-9326.594869,-766.095498
1011.291012,-2442.679609,-11177.109724,-2068.457845
1011.291336,-1258.350101,-10658.965565,-1991.848295
1011.291660,-1776.494261,-8808.450710,-1149.143247
1011.291984,-592.164754,-10214.842000,-995.924147
1011.292308,592.164754,-11399.171507,-1072.533697
1011.292632,1480.411884,-11843.295072,-459.657299
1011.292956,1776.494261,-11769.274478,-306.438199
1011.293280,2368.659014,-11029.068536,-689.485948
1011.293604,2516.700203,-11473.192101,76.609550
1011.293928,1702.473667,-12213.398043,459.657299
1011.294252,1998.556043,-11399.171507,-383.047749
1011.294576,740.205942,-10658.965565,-612.876398
1011.294900,-666.185348,-11621.233289,-1762.019645
1011.295224,-962.267725,-10584.944971,-1378.971896
1011.295548,444.123565,-10066.800811,-459.657299
1011.295872,740.205942,-10140.821405,-1225.752797
1011.296196,-222.061783,-9326.594869,-1072.533697
1011.296520,-1184.329507,-9104.533087,-612.876398
1011.296844,-888.247130,-10214.842000,-842.705048
1011.297168,-222.061783,-10955.047942,-689.485948
1011.297492,814.226536,-8956.491898,76.609550
1011.297816,1480.411884,-8142.265362,76.609550
1011.298140,1332.370696,-9104.533087,-229.828649
1011.298464,1184.329507,-9770.718434,612.876398
1011.298788,370.102971,-9178.553681,-383.047749
1011.299112,148.041188,-8586.388927,0.000000
1011.299436,-148.041188,-8808.450710,153.219100
1011.299760,-444.123565,-9252.574275,76.609550
1011.300084,74.020594,-8734.430116,383.047749
1011.300408,666.185348,-8438.347739,76.609550
1011.300732,-148.041188,-9400.615463,689.485948
1011.301056,-1110.308913,-8956.491898,-306.438199
